workerid	condition	item	rt	correct	word	wordInItem	Region	RegionFine	sentence	noun	Continuation	trial	distractor_condition
0	filler	Practice_2	7350	yes	The	0	NA	NA	The reporter had dinner yesterday with the baseball player who Kevin admired.	NA	NA	4	NA
0	filler	Practice_2	7829	yes	reporter	1	NA	NA	The reporter had dinner yesterday with the baseball player who Kevin admired.	NA	NA	4	NA
0	filler	Practice_2	1782	yes	had	2	NA	NA	The reporter had dinner yesterday with the baseball player who Kevin admired.	NA	NA	4	NA
0	filler	Practice_2	3543	yes	dinner	3	NA	NA	The reporter had dinner yesterday with the baseball player who Kevin admired.	NA	NA	4	NA
0	filler	Practice_2	2487	yes	yesterday	4	NA	NA	The reporter had dinner yesterday with the baseball player who Kevin admired.	NA	NA	4	NA
0	filler	Practice_2	1935	yes	with	5	NA	NA	The reporter had dinner yesterday with the baseball player who Kevin admired.	NA	NA	4	NA
0	filler	Practice_2	1952	yes	the	6	NA	NA	The reporter had dinner yesterday with the baseball player who Kevin admired.	NA	NA	4	NA
0	filler	Practice_2	3749	no	baseball	7	NA	NA	The reporter had dinner yesterday with the baseball player who Kevin admired.	NA	NA	4	NA
0	filler	Practice_2	1775	yes	player	8	NA	NA	The reporter had dinner yesterday with the baseball player who Kevin admired.	NA	NA	4	NA
0	filler	Practice_2	1767	yes	who	9	NA	NA	The reporter had dinner yesterday with the baseball player who Kevin admired.	NA	NA	4	NA
0	filler	Practice_2	5288	no	Kevin	10	NA	NA	The reporter had dinner yesterday with the baseball player who Kevin admired.	NA	NA	4	NA
0	filler	Practice_2	3336	yes	admired.	11	NA	NA	The reporter had dinner yesterday with the baseball player who Kevin admired.	NA	NA	4	NA
0	filler	Filler_53	1035	yes	The	0	NA	NA	The manager who the baker loathed spoke to the new pastry chef because he had instituted a new dress code for all employees.	NA	NA	8	NA
0	filler	Filler_53	3848	yes	manager	1	NA	NA	The manager who the baker loathed spoke to the new pastry chef because he had instituted a new dress code for all employees.	NA	NA	8	NA
0	filler	Filler_53	1062	yes	who	2	NA	NA	The manager who the baker loathed spoke to the new pastry chef because he had instituted a new dress code for all employees.	NA	NA	8	NA
0	filler	Filler_53	1391	yes	the	3	NA	NA	The manager who the baker loathed spoke to the new pastry chef because he had instituted a new dress code for all employees.	NA	NA	8	NA
0	filler	Filler_53	2279	yes	baker	4	NA	NA	The manager who the baker loathed spoke to the new pastry chef because he had instituted a new dress code for all employees.	NA	NA	8	NA
0	filler	Filler_53	2303	yes	loathed	5	NA	NA	The manager who the baker loathed spoke to the new pastry chef because he had instituted a new dress code for all employees.	NA	NA	8	NA
0	filler	Filler_53	1343	no	spoke	6	NA	NA	The manager who the baker loathed spoke to the new pastry chef because he had instituted a new dress code for all employees.	NA	NA	8	NA
0	filler	Filler_53	1351	yes	to	7	NA	NA	The manager who the baker loathed spoke to the new pastry chef because he had instituted a new dress code for all employees.	NA	NA	8	NA
0	filler	Filler_53	895	yes	the	8	NA	NA	The manager who the baker loathed spoke to the new pastry chef because he had instituted a new dress code for all employees.	NA	NA	8	NA
0	filler	Filler_53	1095	yes	new	9	NA	NA	The manager who the baker loathed spoke to the new pastry chef because he had instituted a new dress code for all employees.	NA	NA	8	NA
0	filler	Filler_53	2175	yes	pastry	10	NA	NA	The manager who the baker loathed spoke to the new pastry chef because he had instituted a new dress code for all employees.	NA	NA	8	NA
0	filler	Filler_53	1102	yes	chef	11	NA	NA	The manager who the baker loathed spoke to the new pastry chef because he had instituted a new dress code for all employees.	NA	NA	8	NA
0	filler	Filler_53	1464	yes	because	12	NA	NA	The manager who the baker loathed spoke to the new pastry chef because he had instituted a new dress code for all employees.	NA	NA	8	NA
0	filler	Filler_53	1183	yes	he	13	NA	NA	The manager who the baker loathed spoke to the new pastry chef because he had instituted a new dress code for all employees.	NA	NA	8	NA
0	filler	Filler_53	1375	yes	had	14	NA	NA	The manager who the baker loathed spoke to the new pastry chef because he had instituted a new dress code for all employees.	NA	NA	8	NA
0	filler	Filler_53	5824	yes	instituted	15	NA	NA	The manager who the baker loathed spoke to the new pastry chef because he had instituted a new dress code for all employees.	NA	NA	8	NA
0	filler	Filler_53	1574	yes	a	16	NA	NA	The manager who the baker loathed spoke to the new pastry chef because he had instituted a new dress code for all employees.	NA	NA	8	NA
0	filler	Filler_53	2360	yes	new	17	NA	NA	The manager who the baker loathed spoke to the new pastry chef because he had instituted a new dress code for all employees.	NA	NA	8	NA
0	filler	Filler_53	2540	no	dress	18	NA	NA	The manager who the baker loathed spoke to the new pastry chef because he had instituted a new dress code for all employees.	NA	NA	8	NA
0	filler	Filler_53	1038	yes	code	19	NA	NA	The manager who the baker loathed spoke to the new pastry chef because he had instituted a new dress code for all employees.	NA	NA	8	NA
0	filler	Filler_53	1143	yes	for	20	NA	NA	The manager who the baker loathed spoke to the new pastry chef because he had instituted a new dress code for all employees.	NA	NA	8	NA
0	filler	Filler_53	1151	yes	all	21	NA	NA	The manager who the baker loathed spoke to the new pastry chef because he had instituted a new dress code for all employees.	NA	NA	8	NA
0	filler	Filler_53	1687	yes	employees.	22	NA	NA	The manager who the baker loathed spoke to the new pastry chef because he had instituted a new dress code for all employees.	NA	NA	8	NA
0	filler	Filler_38	1454	yes	During	0	NA	NA	During the party everybody was dancing to rock music.	NA	NA	15	NA
0	filler	Filler_38	871	yes	the	1	NA	NA	During the party everybody was dancing to rock music.	NA	NA	15	NA
0	filler	Filler_38	1143	yes	party	2	NA	NA	During the party everybody was dancing to rock music.	NA	NA	15	NA
0	filler	Filler_38	1231	yes	everybody	3	NA	NA	During the party everybody was dancing to rock music.	NA	NA	15	NA
0	filler	Filler_38	791	yes	was	4	NA	NA	During the party everybody was dancing to rock music.	NA	NA	15	NA
0	filler	Filler_38	1423	yes	dancing	5	NA	NA	During the party everybody was dancing to rock music.	NA	NA	15	NA
0	filler	Filler_38	831	yes	to	6	NA	NA	During the party everybody was dancing to rock music.	NA	NA	15	NA
0	filler	Filler_38	1095	yes	rock	7	NA	NA	During the party everybody was dancing to rock music.	NA	NA	15	NA
0	filler	Filler_38	1079	yes	music.	8	NA	NA	During the party everybody was dancing to rock music.	NA	NA	15	NA
0	filler	Filler_2	706	yes	The	0	NA	NA	The showman travels to different cities every month.	NA	NA	17	NA
0	filler	Filler_2	1271	yes	showman	1	NA	NA	The showman travels to different cities every month.	NA	NA	17	NA
0	filler	Filler_2	1079	yes	travels	2	NA	NA	The showman travels to different cities every month.	NA	NA	17	NA
0	filler	Filler_2	759	yes	to	3	NA	NA	The showman travels to different cities every month.	NA	NA	17	NA
0	filler	Filler_2	1055	yes	different	4	NA	NA	The showman travels to different cities every month.	NA	NA	17	NA
0	filler	Filler_2	1183	yes	cities	5	NA	NA	The showman travels to different cities every month.	NA	NA	17	NA
0	filler	Filler_2	767	yes	every	6	NA	NA	The showman travels to different cities every month.	NA	NA	17	NA
0	filler	Filler_2	991	yes	month.	7	NA	NA	The showman travels to different cities every month.	NA	NA	17	NA
0	filler	Filler_30	973	yes	The	0	NA	NA	The technician at the show repaired the robot while people were taking a break for coffee.	NA	NA	9	NA
0	filler	Filler_30	2367	yes	technician	1	NA	NA	The technician at the show repaired the robot while people were taking a break for coffee.	NA	NA	9	NA
0	filler	Filler_30	2646	yes	at	2	NA	NA	The technician at the show repaired the robot while people were taking a break for coffee.	NA	NA	9	NA
0	filler	Filler_30	1014	yes	the	3	NA	NA	The technician at the show repaired the robot while people were taking a break for coffee.	NA	NA	9	NA
0	filler	Filler_30	2304	yes	show	4	NA	NA	The technician at the show repaired the robot while people were taking a break for coffee.	NA	NA	9	NA
0	filler	Filler_30	2079	yes	repaired	5	NA	NA	The technician at the show repaired the robot while people were taking a break for coffee.	NA	NA	9	NA
0	filler	Filler_30	1159	yes	the	6	NA	NA	The technician at the show repaired the robot while people were taking a break for coffee.	NA	NA	9	NA
0	filler	Filler_30	1295	yes	robot	7	NA	NA	The technician at the show repaired the robot while people were taking a break for coffee.	NA	NA	9	NA
0	filler	Filler_30	1070	yes	while	8	NA	NA	The technician at the show repaired the robot while people were taking a break for coffee.	NA	NA	9	NA
0	filler	Filler_30	935	yes	people	9	NA	NA	The technician at the show repaired the robot while people were taking a break for coffee.	NA	NA	9	NA
0	filler	Filler_30	1223	yes	were	10	NA	NA	The technician at the show repaired the robot while people were taking a break for coffee.	NA	NA	9	NA
0	filler	Filler_30	1199	yes	taking	11	NA	NA	The technician at the show repaired the robot while people were taking a break for coffee.	NA	NA	9	NA
0	filler	Filler_30	3255	yes	a	12	NA	NA	The technician at the show repaired the robot while people were taking a break for coffee.	NA	NA	9	NA
0	filler	Filler_30	1095	yes	break	13	NA	NA	The technician at the show repaired the robot while people were taking a break for coffee.	NA	NA	9	NA
0	filler	Filler_30	1167	yes	for	14	NA	NA	The technician at the show repaired the robot while people were taking a break for coffee.	NA	NA	9	NA
0	filler	Filler_30	1103	yes	coffee.	15	NA	NA	The technician at the show repaired the robot while people were taking a break for coffee.	NA	NA	9	NA
0	filler	Filler_21	2834	yes	The	0	NA	NA	The audience who was at the club booed the singer before the owner of the bar could remove him from the stage.	NA	NA	33	NA
0	filler	Filler_21	1510	yes	audience	1	NA	NA	The audience who was at the club booed the singer before the owner of the bar could remove him from the stage.	NA	NA	33	NA
0	filler	Filler_21	983	yes	who	2	NA	NA	The audience who was at the club booed the singer before the owner of the bar could remove him from the stage.	NA	NA	33	NA
0	filler	Filler_21	783	yes	was	3	NA	NA	The audience who was at the club booed the singer before the owner of the bar could remove him from the stage.	NA	NA	33	NA
0	filler	Filler_21	1015	yes	at	4	NA	NA	The audience who was at the club booed the singer before the owner of the bar could remove him from the stage.	NA	NA	33	NA
0	filler	Filler_21	838	yes	the	5	NA	NA	The audience who was at the club booed the singer before the owner of the bar could remove him from the stage.	NA	NA	33	NA
0	filler	Filler_21	1262	yes	club	6	NA	NA	The audience who was at the club booed the singer before the owner of the bar could remove him from the stage.	NA	NA	33	NA
0	filler	Filler_21	1719	yes	booed	7	NA	NA	The audience who was at the club booed the singer before the owner of the bar could remove him from the stage.	NA	NA	33	NA
0	filler	Filler_21	647	yes	the	8	NA	NA	The audience who was at the club booed the singer before the owner of the bar could remove him from the stage.	NA	NA	33	NA
0	filler	Filler_21	1199	yes	singer	9	NA	NA	The audience who was at the club booed the singer before the owner of the bar could remove him from the stage.	NA	NA	33	NA
0	filler	Filler_21	4286	yes	before	10	NA	NA	The audience who was at the club booed the singer before the owner of the bar could remove him from the stage.	NA	NA	33	NA
0	filler	Filler_21	887	yes	the	11	NA	NA	The audience who was at the club booed the singer before the owner of the bar could remove him from the stage.	NA	NA	33	NA
0	filler	Filler_21	1350	yes	owner	12	NA	NA	The audience who was at the club booed the singer before the owner of the bar could remove him from the stage.	NA	NA	33	NA
0	filler	Filler_21	975	yes	of	13	NA	NA	The audience who was at the club booed the singer before the owner of the bar could remove him from the stage.	NA	NA	33	NA
0	filler	Filler_21	783	yes	the	14	NA	NA	The audience who was at the club booed the singer before the owner of the bar could remove him from the stage.	NA	NA	33	NA
0	filler	Filler_21	911	yes	bar	15	NA	NA	The audience who was at the club booed the singer before the owner of the bar could remove him from the stage.	NA	NA	33	NA
0	filler	Filler_21	991	yes	could	16	NA	NA	The audience who was at the club booed the singer before the owner of the bar could remove him from the stage.	NA	NA	33	NA
0	filler	Filler_21	1431	yes	remove	17	NA	NA	The audience who was at the club booed the singer before the owner of the bar could remove him from the stage.	NA	NA	33	NA
0	filler	Filler_21	911	yes	him	18	NA	NA	The audience who was at the club booed the singer before the owner of the bar could remove him from the stage.	NA	NA	33	NA
0	filler	Filler_21	1374	yes	from	19	NA	NA	The audience who was at the club booed the singer before the owner of the bar could remove him from the stage.	NA	NA	33	NA
0	filler	Filler_21	919	yes	the	20	NA	NA	The audience who was at the club booed the singer before the owner of the bar could remove him from the stage.	NA	NA	33	NA
0	filler	Filler_21	1112	yes	stage.	21	NA	NA	The audience who was at the club booed the singer before the owner of the bar could remove him from the stage.	NA	NA	33	NA
0	filler	Practice_3	1158	yes	The	0	NA	NA	The therapist set up a meeting with the upset woman and her husband yesterday.	NA	NA	6	NA
0	filler	Practice_3	1447	yes	therapist	1	NA	NA	The therapist set up a meeting with the upset woman and her husband yesterday.	NA	NA	6	NA
0	filler	Practice_3	1439	yes	set	2	NA	NA	The therapist set up a meeting with the upset woman and her husband yesterday.	NA	NA	6	NA
0	filler	Practice_3	3654	yes	up	3	NA	NA	The therapist set up a meeting with the upset woman and her husband yesterday.	NA	NA	6	NA
0	filler	Practice_3	1400	yes	a	4	NA	NA	The therapist set up a meeting with the upset woman and her husband yesterday.	NA	NA	6	NA
0	filler	Practice_3	1511	yes	meeting	5	NA	NA	The therapist set up a meeting with the upset woman and her husband yesterday.	NA	NA	6	NA
0	filler	Practice_3	999	yes	with	6	NA	NA	The therapist set up a meeting with the upset woman and her husband yesterday.	NA	NA	6	NA
0	filler	Practice_3	1143	yes	the	7	NA	NA	The therapist set up a meeting with the upset woman and her husband yesterday.	NA	NA	6	NA
0	filler	Practice_3	1503	no	upset	8	NA	NA	The therapist set up a meeting with the upset woman and her husband yesterday.	NA	NA	6	NA
0	filler	Practice_3	1120	yes	woman	9	NA	NA	The therapist set up a meeting with the upset woman and her husband yesterday.	NA	NA	6	NA
0	filler	Practice_3	1063	yes	and	10	NA	NA	The therapist set up a meeting with the upset woman and her husband yesterday.	NA	NA	6	NA
0	filler	Practice_3	1063	yes	her	11	NA	NA	The therapist set up a meeting with the upset woman and her husband yesterday.	NA	NA	6	NA
0	filler	Practice_3	1295	yes	husband	12	NA	NA	The therapist set up a meeting with the upset woman and her husband yesterday.	NA	NA	6	NA
0	filler	Practice_3	2559	yes	yesterday.	13	NA	NA	The therapist set up a meeting with the upset woman and her husband yesterday.	NA	NA	6	NA
0	filler	Filler_35	1619	yes	Yesterday	0	NA	NA	Yesterday the swimmer saw only a turtle at the beach.	NA	NA	12	NA
0	filler	Filler_35	1335	yes	the	1	NA	NA	Yesterday the swimmer saw only a turtle at the beach.	NA	NA	12	NA
0	filler	Filler_35	2326	yes	swimmer	2	NA	NA	Yesterday the swimmer saw only a turtle at the beach.	NA	NA	12	NA
0	filler	Filler_35	2405	yes	saw	3	NA	NA	Yesterday the swimmer saw only a turtle at the beach.	NA	NA	12	NA
0	filler	Filler_35	1407	yes	only	4	NA	NA	Yesterday the swimmer saw only a turtle at the beach.	NA	NA	12	NA
0	filler	Filler_35	815	yes	a	5	NA	NA	Yesterday the swimmer saw only a turtle at the beach.	NA	NA	12	NA
0	filler	Filler_35	2135	yes	turtle	6	NA	NA	Yesterday the swimmer saw only a turtle at the beach.	NA	NA	12	NA
0	filler	Filler_35	1038	yes	at	7	NA	NA	Yesterday the swimmer saw only a turtle at the beach.	NA	NA	12	NA
0	filler	Filler_35	855	yes	the	8	NA	NA	Yesterday the swimmer saw only a turtle at the beach.	NA	NA	12	NA
0	filler	Filler_35	1095	yes	beach.	9	NA	NA	Yesterday the swimmer saw only a turtle at the beach.	NA	NA	12	NA
0	filler	Filler_11	707	yes	The	0	NA	NA	The citizens of France eat oysters.	NA	NA	40	NA
0	filler	Filler_11	1055	yes	citizens	1	NA	NA	The citizens of France eat oysters.	NA	NA	40	NA
0	filler	Filler_11	846	yes	of	2	NA	NA	The citizens of France eat oysters.	NA	NA	40	NA
0	filler	Filler_11	1350	yes	France	3	NA	NA	The citizens of France eat oysters.	NA	NA	40	NA
0	filler	Filler_11	2695	yes	eat	4	NA	NA	The citizens of France eat oysters.	NA	NA	40	NA
0	filler	Filler_11	1327	yes	oysters.	5	NA	NA	The citizens of France eat oysters.	NA	NA	40	NA
0	filler	Filler_22	740	yes	The	0	NA	NA	The defender is constantly scolding the keeper.	NA	NA	43	NA
0	filler	Filler_22	2695	yes	defender	1	NA	NA	The defender is constantly scolding the keeper.	NA	NA	43	NA
0	filler	Filler_22	766	yes	is	2	NA	NA	The defender is constantly scolding the keeper.	NA	NA	43	NA
0	filler	Filler_22	1551	yes	constantly	3	NA	NA	The defender is constantly scolding the keeper.	NA	NA	43	NA
0	filler	Filler_22	2559	yes	scolding	4	NA	NA	The defender is constantly scolding the keeper.	NA	NA	43	NA
0	filler	Filler_22	711	yes	the	5	NA	NA	The defender is constantly scolding the keeper.	NA	NA	43	NA
0	filler	Filler_22	1214	yes	keeper.	6	NA	NA	The defender is constantly scolding the keeper.	NA	NA	43	NA
0	filler	Filler_52	1644	yes	Dinosaurs	0	NA	NA	Dinosaurs ate other reptiles during the stone age.	NA	NA	47	NA
0	filler	Filler_52	1246	yes	ate	1	NA	NA	Dinosaurs ate other reptiles during the stone age.	NA	NA	47	NA
0	filler	Filler_52	1375	yes	other	2	NA	NA	Dinosaurs ate other reptiles during the stone age.	NA	NA	47	NA
0	filler	Filler_52	1271	yes	reptiles	3	NA	NA	Dinosaurs ate other reptiles during the stone age.	NA	NA	47	NA
0	filler	Filler_52	975	yes	during	4	NA	NA	Dinosaurs ate other reptiles during the stone age.	NA	NA	47	NA
0	filler	Filler_52	951	yes	the	5	NA	NA	Dinosaurs ate other reptiles during the stone age.	NA	NA	47	NA
0	filler	Filler_52	1246	yes	stone	6	NA	NA	Dinosaurs ate other reptiles during the stone age.	NA	NA	47	NA
0	filler	Filler_52	774	yes	age.	7	NA	NA	Dinosaurs ate other reptiles during the stone age.	NA	NA	47	NA
0	filler	Filler_45	739	yes	The	0	NA	NA	The passer-by threw the cardboard box into the trash-can with great force.	NA	NA	22	NA
0	filler	Filler_45	1168	yes	passer-by	1	NA	NA	The passer-by threw the cardboard box into the trash-can with great force.	NA	NA	22	NA
0	filler	Filler_45	1799	yes	threw	2	NA	NA	The passer-by threw the cardboard box into the trash-can with great force.	NA	NA	22	NA
0	filler	Filler_45	926	yes	the	3	NA	NA	The passer-by threw the cardboard box into the trash-can with great force.	NA	NA	22	NA
0	filler	Filler_45	2063	yes	cardboard	4	NA	NA	The passer-by threw the cardboard box into the trash-can with great force.	NA	NA	22	NA
0	filler	Filler_45	775	yes	box	5	NA	NA	The passer-by threw the cardboard box into the trash-can with great force.	NA	NA	22	NA
0	filler	Filler_45	887	yes	into	6	NA	NA	The passer-by threw the cardboard box into the trash-can with great force.	NA	NA	22	NA
0	filler	Filler_45	895	yes	the	7	NA	NA	The passer-by threw the cardboard box into the trash-can with great force.	NA	NA	22	NA
0	filler	Filler_45	1318	yes	trash-can	8	NA	NA	The passer-by threw the cardboard box into the trash-can with great force.	NA	NA	22	NA
0	filler	Filler_45	1359	yes	with	9	NA	NA	The passer-by threw the cardboard box into the trash-can with great force.	NA	NA	22	NA
0	filler	Filler_45	1023	yes	great	10	NA	NA	The passer-by threw the cardboard box into the trash-can with great force.	NA	NA	22	NA
0	filler	Filler_45	1439	yes	force.	11	NA	NA	The passer-by threw the cardboard box into the trash-can with great force.	NA	NA	22	NA
0	filler	Filler_3	818	yes	The	0	NA	NA	The roommate takes out the garbage every week.	NA	NA	23	NA
0	filler	Filler_3	1760	yes	roommate	1	NA	NA	The roommate takes out the garbage every week.	NA	NA	23	NA
0	filler	Filler_3	1359	yes	takes	2	NA	NA	The roommate takes out the garbage every week.	NA	NA	23	NA
0	filler	Filler_3	983	yes	out	3	NA	NA	The roommate takes out the garbage every week.	NA	NA	23	NA
0	filler	Filler_3	807	yes	the	4	NA	NA	The roommate takes out the garbage every week.	NA	NA	23	NA
0	filler	Filler_3	1303	yes	garbage	5	NA	NA	The roommate takes out the garbage every week.	NA	NA	23	NA
0	filler	Filler_3	959	yes	every	6	NA	NA	The roommate takes out the garbage every week.	NA	NA	23	NA
0	filler	Filler_3	783	yes	week.	7	NA	NA	The roommate takes out the garbage every week.	NA	NA	23	NA
0	filler	Filler_55	628	yes	The	0	NA	NA	The cook who the servant in the kitchen hired offended the butler and then left the mansion early to see a movie at the local theater.	NA	NA	24	NA
0	filler	Filler_55	1655	yes	cook	1	NA	NA	The cook who the servant in the kitchen hired offended the butler and then left the mansion early to see a movie at the local theater.	NA	NA	24	NA
0	filler	Filler_55	943	yes	who	2	NA	NA	The cook who the servant in the kitchen hired offended the butler and then left the mansion early to see a movie at the local theater.	NA	NA	24	NA
0	filler	Filler_55	1230	yes	the	3	NA	NA	The cook who the servant in the kitchen hired offended the butler and then left the mansion early to see a movie at the local theater.	NA	NA	24	NA
0	filler	Filler_55	1000	yes	servant	4	NA	NA	The cook who the servant in the kitchen hired offended the butler and then left the mansion early to see a movie at the local theater.	NA	NA	24	NA
0	filler	Filler_55	1471	yes	in	5	NA	NA	The cook who the servant in the kitchen hired offended the butler and then left the mansion early to see a movie at the local theater.	NA	NA	24	NA
0	filler	Filler_55	1183	yes	the	6	NA	NA	The cook who the servant in the kitchen hired offended the butler and then left the mansion early to see a movie at the local theater.	NA	NA	24	NA
0	filler	Filler_55	1375	yes	kitchen	7	NA	NA	The cook who the servant in the kitchen hired offended the butler and then left the mansion early to see a movie at the local theater.	NA	NA	24	NA
0	filler	Filler_55	1679	yes	hired	8	NA	NA	The cook who the servant in the kitchen hired offended the butler and then left the mansion early to see a movie at the local theater.	NA	NA	24	NA
0	filler	Filler_55	2703	no	offended	9	NA	NA	The cook who the servant in the kitchen hired offended the butler and then left the mansion early to see a movie at the local theater.	NA	NA	24	NA
0	filler	Filler_55	1087	yes	the	10	NA	NA	The cook who the servant in the kitchen hired offended the butler and then left the mansion early to see a movie at the local theater.	NA	NA	24	NA
0	filler	Filler_55	1135	yes	butler	11	NA	NA	The cook who the servant in the kitchen hired offended the butler and then left the mansion early to see a movie at the local theater.	NA	NA	24	NA
0	filler	Filler_55	854	yes	and	12	NA	NA	The cook who the servant in the kitchen hired offended the butler and then left the mansion early to see a movie at the local theater.	NA	NA	24	NA
0	filler	Filler_55	1671	yes	then	13	NA	NA	The cook who the servant in the kitchen hired offended the butler and then left the mansion early to see a movie at the local theater.	NA	NA	24	NA
0	filler	Filler_55	1680	yes	left	14	NA	NA	The cook who the servant in the kitchen hired offended the butler and then left the mansion early to see a movie at the local theater.	NA	NA	24	NA
0	filler	Filler_55	1318	yes	the	15	NA	NA	The cook who the servant in the kitchen hired offended the butler and then left the mansion early to see a movie at the local theater.	NA	NA	24	NA
0	filler	Filler_55	1478	yes	mansion	16	NA	NA	The cook who the servant in the kitchen hired offended the butler and then left the mansion early to see a movie at the local theater.	NA	NA	24	NA
0	filler	Filler_55	1319	yes	early	17	NA	NA	The cook who the servant in the kitchen hired offended the butler and then left the mansion early to see a movie at the local theater.	NA	NA	24	NA
0	filler	Filler_55	974	yes	to	18	NA	NA	The cook who the servant in the kitchen hired offended the butler and then left the mansion early to see a movie at the local theater.	NA	NA	24	NA
0	filler	Filler_55	967	yes	see	19	NA	NA	The cook who the servant in the kitchen hired offended the butler and then left the mansion early to see a movie at the local theater.	NA	NA	24	NA
0	filler	Filler_55	1159	yes	a	20	NA	NA	The cook who the servant in the kitchen hired offended the butler and then left the mansion early to see a movie at the local theater.	NA	NA	24	NA
0	filler	Filler_55	1054	yes	movie	21	NA	NA	The cook who the servant in the kitchen hired offended the butler and then left the mansion early to see a movie at the local theater.	NA	NA	24	NA
0	filler	Filler_55	896	yes	at	22	NA	NA	The cook who the servant in the kitchen hired offended the butler and then left the mansion early to see a movie at the local theater.	NA	NA	24	NA
0	filler	Filler_55	2191	yes	the	23	NA	NA	The cook who the servant in the kitchen hired offended the butler and then left the mansion early to see a movie at the local theater.	NA	NA	24	NA
0	filler	Filler_55	943	yes	local	24	NA	NA	The cook who the servant in the kitchen hired offended the butler and then left the mansion early to see a movie at the local theater.	NA	NA	24	NA
0	filler	Filler_55	1247	yes	theater.	25	NA	NA	The cook who the servant in the kitchen hired offended the butler and then left the mansion early to see a movie at the local theater.	NA	NA	24	NA
0	filler	Filler_25	690	yes	The	0	NA	NA	The trainee knew that the task which the director had set for him was impossible to finish within a week.	NA	NA	27	NA
0	filler	Filler_25	1208	yes	trainee	1	NA	NA	The trainee knew that the task which the director had set for him was impossible to finish within a week.	NA	NA	27	NA
0	filler	Filler_25	1175	no	knew	2	NA	NA	The trainee knew that the task which the director had set for him was impossible to finish within a week.	NA	NA	27	NA
0	filler	Filler_25	1119	yes	that	3	NA	NA	The trainee knew that the task which the director had set for him was impossible to finish within a week.	NA	NA	27	NA
0	filler	Filler_25	710	yes	the	4	NA	NA	The trainee knew that the task which the director had set for him was impossible to finish within a week.	NA	NA	27	NA
0	filler	Filler_25	1223	yes	task	5	NA	NA	The trainee knew that the task which the director had set for him was impossible to finish within a week.	NA	NA	27	NA
0	filler	Filler_25	998	yes	which	6	NA	NA	The trainee knew that the task which the director had set for him was impossible to finish within a week.	NA	NA	27	NA
0	filler	Filler_25	1174	yes	the	7	NA	NA	The trainee knew that the task which the director had set for him was impossible to finish within a week.	NA	NA	27	NA
0	filler	Filler_25	2417	yes	director	8	NA	NA	The trainee knew that the task which the director had set for him was impossible to finish within a week.	NA	NA	27	NA
0	filler	Filler_25	821	yes	had	9	NA	NA	The trainee knew that the task which the director had set for him was impossible to finish within a week.	NA	NA	27	NA
0	filler	Filler_25	798	yes	set	10	NA	NA	The trainee knew that the task which the director had set for him was impossible to finish within a week.	NA	NA	27	NA
0	filler	Filler_25	1535	yes	for	11	NA	NA	The trainee knew that the task which the director had set for him was impossible to finish within a week.	NA	NA	27	NA
0	filler	Filler_25	711	yes	him	12	NA	NA	The trainee knew that the task which the director had set for him was impossible to finish within a week.	NA	NA	27	NA
0	filler	Filler_25	879	yes	was	13	NA	NA	The trainee knew that the task which the director had set for him was impossible to finish within a week.	NA	NA	27	NA
0	filler	Filler_25	1838	yes	impossible	14	NA	NA	The trainee knew that the task which the director had set for him was impossible to finish within a week.	NA	NA	27	NA
0	filler	Filler_25	1206	yes	to	15	NA	NA	The trainee knew that the task which the director had set for him was impossible to finish within a week.	NA	NA	27	NA
0	filler	Filler_25	1007	yes	finish	16	NA	NA	The trainee knew that the task which the director had set for him was impossible to finish within a week.	NA	NA	27	NA
0	filler	Filler_25	967	yes	within	17	NA	NA	The trainee knew that the task which the director had set for him was impossible to finish within a week.	NA	NA	27	NA
0	filler	Filler_25	702	yes	a	18	NA	NA	The trainee knew that the task which the director had set for him was impossible to finish within a week.	NA	NA	27	NA
0	filler	Filler_25	863	yes	week.	19	NA	NA	The trainee knew that the task which the director had set for him was impossible to finish within a week.	NA	NA	27	NA
0	filler	Filler_46	825	yes	The	0	NA	NA	The biker who the police arrested ran a light since he was driving under the influence of alcohol.	NA	NA	28	NA
0	filler	Filler_46	1272	yes	biker	1	NA	NA	The biker who the police arrested ran a light since he was driving under the influence of alcohol.	NA	NA	28	NA
0	filler	Filler_46	1343	no	who	2	NA	NA	The biker who the police arrested ran a light since he was driving under the influence of alcohol.	NA	NA	28	NA
0	filler	Filler_46	1183	yes	the	3	NA	NA	The biker who the police arrested ran a light since he was driving under the influence of alcohol.	NA	NA	28	NA
0	filler	Filler_46	919	yes	police	4	NA	NA	The biker who the police arrested ran a light since he was driving under the influence of alcohol.	NA	NA	28	NA
0	filler	Filler_46	1511	yes	arrested	5	NA	NA	The biker who the police arrested ran a light since he was driving under the influence of alcohol.	NA	NA	28	NA
0	filler	Filler_46	1575	yes	ran	6	NA	NA	The biker who the police arrested ran a light since he was driving under the influence of alcohol.	NA	NA	28	NA
0	filler	Filler_46	775	yes	a	7	NA	NA	The biker who the police arrested ran a light since he was driving under the influence of alcohol.	NA	NA	28	NA
0	filler	Filler_46	1222	yes	light	8	NA	NA	The biker who the police arrested ran a light since he was driving under the influence of alcohol.	NA	NA	28	NA
0	filler	Filler_46	2151	yes	since	9	NA	NA	The biker who the police arrested ran a light since he was driving under the influence of alcohol.	NA	NA	28	NA
0	filler	Filler_46	782	yes	he	10	NA	NA	The biker who the police arrested ran a light since he was driving under the influence of alcohol.	NA	NA	28	NA
0	filler	Filler_46	2136	yes	was	11	NA	NA	The biker who the police arrested ran a light since he was driving under the influence of alcohol.	NA	NA	28	NA
0	filler	Filler_46	1471	yes	driving	12	NA	NA	The biker who the police arrested ran a light since he was driving under the influence of alcohol.	NA	NA	28	NA
0	filler	Filler_46	1111	yes	under	13	NA	NA	The biker who the police arrested ran a light since he was driving under the influence of alcohol.	NA	NA	28	NA
0	filler	Filler_46	774	yes	the	14	NA	NA	The biker who the police arrested ran a light since he was driving under the influence of alcohol.	NA	NA	28	NA
0	filler	Filler_46	1031	yes	influence	15	NA	NA	The biker who the police arrested ran a light since he was driving under the influence of alcohol.	NA	NA	28	NA
0	filler	Filler_46	808	yes	of	16	NA	NA	The biker who the police arrested ran a light since he was driving under the influence of alcohol.	NA	NA	28	NA
0	filler	Filler_46	903	yes	alcohol.	17	NA	NA	The biker who the police arrested ran a light since he was driving under the influence of alcohol.	NA	NA	28	NA
0	filler	Filler_4	694	yes	The	0	NA	NA	The dragon wounded the knight although he was far too crippled to protect the princess.	NA	NA	45	NA
0	filler	Filler_4	1384	yes	dragon	1	NA	NA	The dragon wounded the knight although he was far too crippled to protect the princess.	NA	NA	45	NA
0	filler	Filler_4	1366	yes	wounded	2	NA	NA	The dragon wounded the knight although he was far too crippled to protect the princess.	NA	NA	45	NA
0	filler	Filler_4	639	yes	the	3	NA	NA	The dragon wounded the knight although he was far too crippled to protect the princess.	NA	NA	45	NA
0	filler	Filler_4	807	yes	knight	4	NA	NA	The dragon wounded the knight although he was far too crippled to protect the princess.	NA	NA	45	NA
0	filler	Filler_4	823	yes	although	5	NA	NA	The dragon wounded the knight although he was far too crippled to protect the princess.	NA	NA	45	NA
0	filler	Filler_4	1319	yes	he	6	NA	NA	The dragon wounded the knight although he was far too crippled to protect the princess.	NA	NA	45	NA
0	filler	Filler_4	887	yes	was	7	NA	NA	The dragon wounded the knight although he was far too crippled to protect the princess.	NA	NA	45	NA
0	filler	Filler_4	806	yes	far	8	NA	NA	The dragon wounded the knight although he was far too crippled to protect the princess.	NA	NA	45	NA
0	filler	Filler_4	903	yes	too	9	NA	NA	The dragon wounded the knight although he was far too crippled to protect the princess.	NA	NA	45	NA
0	filler	Filler_4	1736	yes	crippled	10	NA	NA	The dragon wounded the knight although he was far too crippled to protect the princess.	NA	NA	45	NA
0	filler	Filler_4	879	yes	to	11	NA	NA	The dragon wounded the knight although he was far too crippled to protect the princess.	NA	NA	45	NA
0	filler	Filler_4	1183	yes	protect	12	NA	NA	The dragon wounded the knight although he was far too crippled to protect the princess.	NA	NA	45	NA
0	filler	Filler_4	807	yes	the	13	NA	NA	The dragon wounded the knight although he was far too crippled to protect the princess.	NA	NA	45	NA
0	filler	Filler_4	1399	yes	princess.	14	NA	NA	The dragon wounded the knight although he was far too crippled to protect the princess.	NA	NA	45	NA
0	filler	Filler_15	606	yes	The	0	NA	NA	The librarian put the book onto the shelf.	NA	NA	48	NA
0	filler	Filler_15	1008	yes	librarian	1	NA	NA	The librarian put the book onto the shelf.	NA	NA	48	NA
0	filler	Filler_15	1334	yes	put	2	NA	NA	The librarian put the book onto the shelf.	NA	NA	48	NA
0	filler	Filler_15	990	yes	the	3	NA	NA	The librarian put the book onto the shelf.	NA	NA	48	NA
0	filler	Filler_15	862	yes	book	4	NA	NA	The librarian put the book onto the shelf.	NA	NA	48	NA
0	filler	Filler_15	710	yes	onto	5	NA	NA	The librarian put the book onto the shelf.	NA	NA	48	NA
0	filler	Filler_15	1086	yes	the	6	NA	NA	The librarian put the book onto the shelf.	NA	NA	48	NA
0	filler	Filler_15	790	yes	shelf.	7	NA	NA	The librarian put the book onto the shelf.	NA	NA	48	NA
0	filler	Filler_36	1028	yes	The	0	NA	NA	The surgeon who the detective who was on the case consulted questioned the coroner because the markings on the body were difficult to explain.	NA	NA	16	NA
0	filler	Filler_36	1399	yes	surgeon	1	NA	NA	The surgeon who the detective who was on the case consulted questioned the coroner because the markings on the body were difficult to explain.	NA	NA	16	NA
0	filler	Filler_36	774	yes	who	2	NA	NA	The surgeon who the detective who was on the case consulted questioned the coroner because the markings on the body were difficult to explain.	NA	NA	16	NA
0	filler	Filler_36	1190	yes	the	3	NA	NA	The surgeon who the detective who was on the case consulted questioned the coroner because the markings on the body were difficult to explain.	NA	NA	16	NA
0	filler	Filler_36	3983	yes	detective	4	NA	NA	The surgeon who the detective who was on the case consulted questioned the coroner because the markings on the body were difficult to explain.	NA	NA	16	NA
0	filler	Filler_36	1215	yes	who	5	NA	NA	The surgeon who the detective who was on the case consulted questioned the coroner because the markings on the body were difficult to explain.	NA	NA	16	NA
0	filler	Filler_36	999	yes	was	6	NA	NA	The surgeon who the detective who was on the case consulted questioned the coroner because the markings on the body were difficult to explain.	NA	NA	16	NA
0	filler	Filler_36	1262	no	on	7	NA	NA	The surgeon who the detective who was on the case consulted questioned the coroner because the markings on the body were difficult to explain.	NA	NA	16	NA
0	filler	Filler_36	1393	yes	the	8	NA	NA	The surgeon who the detective who was on the case consulted questioned the coroner because the markings on the body were difficult to explain.	NA	NA	16	NA
0	filler	Filler_36	1150	yes	case	9	NA	NA	The surgeon who the detective who was on the case consulted questioned the coroner because the markings on the body were difficult to explain.	NA	NA	16	NA
0	filler	Filler_36	1919	yes	consulted	10	NA	NA	The surgeon who the detective who was on the case consulted questioned the coroner because the markings on the body were difficult to explain.	NA	NA	16	NA
0	filler	Filler_36	4127	yes	questioned	11	NA	NA	The surgeon who the detective who was on the case consulted questioned the coroner because the markings on the body were difficult to explain.	NA	NA	16	NA
0	filler	Filler_36	1006	yes	the	12	NA	NA	The surgeon who the detective who was on the case consulted questioned the coroner because the markings on the body were difficult to explain.	NA	NA	16	NA
0	filler	Filler_36	1345	yes	coroner	13	NA	NA	The surgeon who the detective who was on the case consulted questioned the coroner because the markings on the body were difficult to explain.	NA	NA	16	NA
0	filler	Filler_36	1158	yes	because	14	NA	NA	The surgeon who the detective who was on the case consulted questioned the coroner because the markings on the body were difficult to explain.	NA	NA	16	NA
0	filler	Filler_36	926	yes	the	15	NA	NA	The surgeon who the detective who was on the case consulted questioned the coroner because the markings on the body were difficult to explain.	NA	NA	16	NA
0	filler	Filler_36	2238	yes	markings	16	NA	NA	The surgeon who the detective who was on the case consulted questioned the coroner because the markings on the body were difficult to explain.	NA	NA	16	NA
0	filler	Filler_36	958	yes	on	17	NA	NA	The surgeon who the detective who was on the case consulted questioned the coroner because the markings on the body were difficult to explain.	NA	NA	16	NA
0	filler	Filler_36	782	yes	the	18	NA	NA	The surgeon who the detective who was on the case consulted questioned the coroner because the markings on the body were difficult to explain.	NA	NA	16	NA
0	filler	Filler_36	839	yes	body	19	NA	NA	The surgeon who the detective who was on the case consulted questioned the coroner because the markings on the body were difficult to explain.	NA	NA	16	NA
0	filler	Filler_36	1151	yes	were	20	NA	NA	The surgeon who the detective who was on the case consulted questioned the coroner because the markings on the body were difficult to explain.	NA	NA	16	NA
0	filler	Filler_36	1295	yes	difficult	21	NA	NA	The surgeon who the detective who was on the case consulted questioned the coroner because the markings on the body were difficult to explain.	NA	NA	16	NA
0	filler	Filler_36	743	yes	to	22	NA	NA	The surgeon who the detective who was on the case consulted questioned the coroner because the markings on the body were difficult to explain.	NA	NA	16	NA
0	filler	Filler_36	918	yes	explain.	23	NA	NA	The surgeon who the detective who was on the case consulted questioned the coroner because the markings on the body were difficult to explain.	NA	NA	16	NA
0	filler	Filler_5	666	yes	The	0	NA	NA	The office-worker worked through the stack of files on his desk quickly.	NA	NA	29	NA
0	filler	Filler_5	2064	yes	office-worker	1	NA	NA	The office-worker worked through the stack of files on his desk quickly.	NA	NA	29	NA
0	filler	Filler_5	1591	yes	worked	2	NA	NA	The office-worker worked through the stack of files on his desk quickly.	NA	NA	29	NA
0	filler	Filler_5	1135	yes	through	3	NA	NA	The office-worker worked through the stack of files on his desk quickly.	NA	NA	29	NA
0	filler	Filler_5	847	yes	the	4	NA	NA	The office-worker worked through the stack of files on his desk quickly.	NA	NA	29	NA
0	filler	Filler_5	2767	yes	stack	5	NA	NA	The office-worker worked through the stack of files on his desk quickly.	NA	NA	29	NA
0	filler	Filler_5	708	yes	of	6	NA	NA	The office-worker worked through the stack of files on his desk quickly.	NA	NA	29	NA
0	filler	Filler_5	1108	yes	files	7	NA	NA	The office-worker worked through the stack of files on his desk quickly.	NA	NA	29	NA
0	filler	Filler_5	855	yes	on	8	NA	NA	The office-worker worked through the stack of files on his desk quickly.	NA	NA	29	NA
0	filler	Filler_5	1255	yes	his	9	NA	NA	The office-worker worked through the stack of files on his desk quickly.	NA	NA	29	NA
0	filler	Filler_5	855	yes	desk	10	NA	NA	The office-worker worked through the stack of files on his desk quickly.	NA	NA	29	NA
0	filler	Filler_5	1198	yes	quickly.	11	NA	NA	The office-worker worked through the stack of files on his desk quickly.	NA	NA	29	NA
0	critical_compatible	Critical_10	801	yes	The	0	REGION_D0	NA	The contention that the actor made her cry was sad to hear.	contention	was_sad_to_hear.	39	dist1
0	critical_compatible	Critical_10	2727	no	contention	1	REGION_N0	NA	The contention that the actor made her cry was sad to hear.	contention	was_sad_to_hear.	39	dist1
0	critical_compatible	Critical_10	1023	yes	that	2	REGION_0_0	NA	The contention that the actor made her cry was sad to hear.	contention	was_sad_to_hear.	39	dist1
0	critical_compatible	Critical_10	846	yes	the	3	REGION_0_1	NA	The contention that the actor made her cry was sad to hear.	contention	was_sad_to_hear.	39	dist1
0	critical_compatible	Critical_10	990	yes	actor	4	REGION_0_2	NA	The contention that the actor made her cry was sad to hear.	contention	was_sad_to_hear.	39	dist1
0	critical_compatible	Critical_10	1166	yes	made	5	REGION_2_0	NA	The contention that the actor made her cry was sad to hear.	contention	was_sad_to_hear.	39	dist1
0	critical_compatible	Critical_10	750	yes	her	6	REGION_2_1	NA	The contention that the actor made her cry was sad to hear.	contention	was_sad_to_hear.	39	dist1
0	critical_compatible	Critical_10	998	yes	cry	7	REGION_2_2	NA	The contention that the actor made her cry was sad to hear.	contention	was_sad_to_hear.	39	dist1
0	critical_compatible	Critical_10	760	yes	was	8	REGION_3_0	NA	The contention that the actor made her cry was sad to hear.	contention	was_sad_to_hear.	39	dist1
0	critical_compatible	Critical_10	926	yes	sad	9	REGION_3_1	NA	The contention that the actor made her cry was sad to hear.	contention	was_sad_to_hear.	39	dist1
0	critical_compatible	Critical_10	727	yes	to	10	REGION_3_2	NA	The contention that the actor made her cry was sad to hear.	contention	was_sad_to_hear.	39	dist1
0	critical_compatible	Critical_10	1414	yes	hear.	11	REGION_3_3	NA	The contention that the actor made her cry was sad to hear.	contention	was_sad_to_hear.	39	dist1
0	filler	Practice_1	1169	yes	The	0	NA	NA	The mother of the prisoner sent him packages that contained cookies and novels.	NA	NA	5	NA
0	filler	Practice_1	1446	yes	mother	1	NA	NA	The mother of the prisoner sent him packages that contained cookies and novels.	NA	NA	5	NA
0	filler	Practice_1	1222	yes	of	2	NA	NA	The mother of the prisoner sent him packages that contained cookies and novels.	NA	NA	5	NA
0	filler	Practice_1	990	yes	the	3	NA	NA	The mother of the prisoner sent him packages that contained cookies and novels.	NA	NA	5	NA
0	filler	Practice_1	1854	yes	prisoner	4	NA	NA	The mother of the prisoner sent him packages that contained cookies and novels.	NA	NA	5	NA
0	filler	Practice_1	1295	yes	sent	5	NA	NA	The mother of the prisoner sent him packages that contained cookies and novels.	NA	NA	5	NA
0	filler	Practice_1	982	yes	him	6	NA	NA	The mother of the prisoner sent him packages that contained cookies and novels.	NA	NA	5	NA
0	filler	Practice_1	2159	yes	packages	7	NA	NA	The mother of the prisoner sent him packages that contained cookies and novels.	NA	NA	5	NA
0	filler	Practice_1	1102	yes	that	8	NA	NA	The mother of the prisoner sent him packages that contained cookies and novels.	NA	NA	5	NA
0	filler	Practice_1	3557	yes	contained	9	NA	NA	The mother of the prisoner sent him packages that contained cookies and novels.	NA	NA	5	NA
0	filler	Practice_1	2231	yes	cookies	10	NA	NA	The mother of the prisoner sent him packages that contained cookies and novels.	NA	NA	5	NA
0	filler	Practice_1	1454	yes	and	11	NA	NA	The mother of the prisoner sent him packages that contained cookies and novels.	NA	NA	5	NA
0	filler	Practice_1	2487	yes	novels.	12	NA	NA	The mother of the prisoner sent him packages that contained cookies and novels.	NA	NA	5	NA
0	filler	Practice_0	1283	yes	The	0	NA	NA	The semester will start next week, but the students and teachers are not ready.	NA	NA	7	NA
0	filler	Practice_0	4791	yes	semester	1	NA	NA	The semester will start next week, but the students and teachers are not ready.	NA	NA	7	NA
0	filler	Practice_0	1303	yes	will	2	NA	NA	The semester will start next week, but the students and teachers are not ready.	NA	NA	7	NA
0	filler	Practice_0	1078	yes	start	3	NA	NA	The semester will start next week, but the students and teachers are not ready.	NA	NA	7	NA
0	filler	Practice_0	1414	yes	next	4	NA	NA	The semester will start next week, but the students and teachers are not ready.	NA	NA	7	NA
0	filler	Practice_0	1478	yes	week,	5	NA	NA	The semester will start next week, but the students and teachers are not ready.	NA	NA	7	NA
0	filler	Practice_0	1038	yes	but	6	NA	NA	The semester will start next week, but the students and teachers are not ready.	NA	NA	7	NA
0	filler	Practice_0	1614	yes	the	7	NA	NA	The semester will start next week, but the students and teachers are not ready.	NA	NA	7	NA
0	filler	Practice_0	1447	yes	students	8	NA	NA	The semester will start next week, but the students and teachers are not ready.	NA	NA	7	NA
0	filler	Practice_0	1255	yes	and	9	NA	NA	The semester will start next week, but the students and teachers are not ready.	NA	NA	7	NA
0	filler	Practice_0	1358	yes	teachers	10	NA	NA	The semester will start next week, but the students and teachers are not ready.	NA	NA	7	NA
0	filler	Practice_0	1094	yes	are	11	NA	NA	The semester will start next week, but the students and teachers are not ready.	NA	NA	7	NA
0	filler	Practice_0	1287	yes	not	12	NA	NA	The semester will start next week, but the students and teachers are not ready.	NA	NA	7	NA
0	filler	Practice_0	1504	yes	ready.	13	NA	NA	The semester will start next week, but the students and teachers are not ready.	NA	NA	7	NA
0	filler	Filler_50	675	yes	The	0	NA	NA	The producer shoots a new movie every year.	NA	NA	49	NA
0	filler	Filler_50	814	yes	producer	1	NA	NA	The producer shoots a new movie every year.	NA	NA	49	NA
0	filler	Filler_50	1270	yes	shoots	2	NA	NA	The producer shoots a new movie every year.	NA	NA	49	NA
0	filler	Filler_50	864	yes	a	3	NA	NA	The producer shoots a new movie every year.	NA	NA	49	NA
0	filler	Filler_50	862	yes	new	4	NA	NA	The producer shoots a new movie every year.	NA	NA	49	NA
0	filler	Filler_50	983	yes	movie	5	NA	NA	The producer shoots a new movie every year.	NA	NA	49	NA
0	filler	Filler_50	750	yes	every	6	NA	NA	The producer shoots a new movie every year.	NA	NA	49	NA
0	filler	Filler_50	686	yes	year.	7	NA	NA	The producer shoots a new movie every year.	NA	NA	49	NA
0	critical_incompatible	Critical_9	859	yes	The	0	REGION_D0	NA	The insinuation that the student was lazy was a malicious smear.	insinuation	was_a_malicious_smear.	14	dist1
0	critical_incompatible	Critical_9	1791	yes	insinuation	1	REGION_N0	NA	The insinuation that the student was lazy was a malicious smear.	insinuation	was_a_malicious_smear.	14	dist1
0	critical_incompatible	Critical_9	1055	yes	that	2	REGION_0_0	NA	The insinuation that the student was lazy was a malicious smear.	insinuation	was_a_malicious_smear.	14	dist1
0	critical_incompatible	Critical_9	1238	yes	the	3	REGION_0_1	NA	The insinuation that the student was lazy was a malicious smear.	insinuation	was_a_malicious_smear.	14	dist1
0	critical_incompatible	Critical_9	1183	yes	student	4	REGION_0_2	NA	The insinuation that the student was lazy was a malicious smear.	insinuation	was_a_malicious_smear.	14	dist1
0	critical_incompatible	Critical_9	743	yes	was	5	REGION_2_0	NA	The insinuation that the student was lazy was a malicious smear.	insinuation	was_a_malicious_smear.	14	dist1
0	critical_incompatible	Critical_9	3991	yes	lazy	6	REGION_2_1	NA	The insinuation that the student was lazy was a malicious smear.	insinuation	was_a_malicious_smear.	14	dist1
0	critical_incompatible	Critical_9	966	yes	was	7	REGION_3_0	NA	The insinuation that the student was lazy was a malicious smear.	insinuation	was_a_malicious_smear.	14	dist1
0	critical_incompatible	Critical_9	2424	yes	a	8	REGION_3_1	NA	The insinuation that the student was lazy was a malicious smear.	insinuation	was_a_malicious_smear.	14	dist1
0	critical_incompatible	Critical_9	5734	no	malicious	9	REGION_3_2	NA	The insinuation that the student was lazy was a malicious smear.	insinuation	was_a_malicious_smear.	14	dist1
0	critical_incompatible	Critical_9	1735	yes	smear.	10	REGION_3_3	NA	The insinuation that the student was lazy was a malicious smear.	insinuation	was_a_malicious_smear.	14	dist1
0	critical_incompatible	Critical_2	651	yes	The	0	REGION_D0	NA	The truth that the commander was fired troubled people.	truth	troubled_people.	21	dist1
0	critical_incompatible	Critical_2	1111	no	truth	1	REGION_N0	NA	The truth that the commander was fired troubled people.	truth	troubled_people.	21	dist1
0	critical_incompatible	Critical_2	1128	yes	that	2	REGION_0_0	NA	The truth that the commander was fired troubled people.	truth	troubled_people.	21	dist1
0	critical_incompatible	Critical_2	1007	no	the	3	REGION_0_1	NA	The truth that the commander was fired troubled people.	truth	troubled_people.	21	dist1
0	critical_incompatible	Critical_2	2232	yes	commander	4	REGION_0_2	NA	The truth that the commander was fired troubled people.	truth	troubled_people.	21	dist1
0	critical_incompatible	Critical_2	1006	yes	was	5	REGION_2_0	NA	The truth that the commander was fired troubled people.	truth	troubled_people.	21	dist1
0	critical_incompatible	Critical_2	2270	yes	fired	6	REGION_2_1	NA	The truth that the commander was fired troubled people.	truth	troubled_people.	21	dist1
0	critical_incompatible	Critical_2	3127	no	troubled	7	REGION_3_0	NA	The truth that the commander was fired troubled people.	truth	troubled_people.	21	dist1
0	critical_incompatible	Critical_2	1271	yes	people.	8	REGION_3_1	NA	The truth that the commander was fired troubled people.	truth	troubled_people.	21	dist1
0	critical_compatible	Critical_14	908	yes	The	0	REGION_D0	NA	The assessment that the sculptor was popular was no surprise.	assessment	was_no_surprise.	25	dist1
0	critical_compatible	Critical_14	3344	yes	assessment	1	REGION_N0	NA	The assessment that the sculptor was popular was no surprise.	assessment	was_no_surprise.	25	dist1
0	critical_compatible	Critical_14	1015	yes	that	2	REGION_0_0	NA	The assessment that the sculptor was popular was no surprise.	assessment	was_no_surprise.	25	dist1
0	critical_compatible	Critical_14	823	yes	the	3	REGION_0_1	NA	The assessment that the sculptor was popular was no surprise.	assessment	was_no_surprise.	25	dist1
0	critical_compatible	Critical_14	2039	yes	sculptor	4	REGION_0_2	NA	The assessment that the sculptor was popular was no surprise.	assessment	was_no_surprise.	25	dist1
0	critical_compatible	Critical_14	1031	yes	was	5	REGION_2_0	NA	The assessment that the sculptor was popular was no surprise.	assessment	was_no_surprise.	25	dist1
0	critical_compatible	Critical_14	1671	yes	popular	6	REGION_2_1	NA	The assessment that the sculptor was popular was no surprise.	assessment	was_no_surprise.	25	dist1
0	critical_compatible	Critical_14	854	yes	was	7	REGION_3_0	NA	The assessment that the sculptor was popular was no surprise.	assessment	was_no_surprise.	25	dist1
0	critical_compatible	Critical_14	1199	yes	no	8	REGION_3_1	NA	The assessment that the sculptor was popular was no surprise.	assessment	was_no_surprise.	25	dist1
0	critical_compatible	Critical_14	1479	yes	surprise.	9	REGION_3_2	NA	The assessment that the sculptor was popular was no surprise.	assessment	was_no_surprise.	25	dist1
0	filler	Filler_33	763	yes	The	0	NA	NA	The locksmith can crack the safe easily.	NA	NA	36	NA
0	filler	Filler_33	1031	yes	locksmith	1	NA	NA	The locksmith can crack the safe easily.	NA	NA	36	NA
0	filler	Filler_33	951	yes	can	2	NA	NA	The locksmith can crack the safe easily.	NA	NA	36	NA
0	filler	Filler_33	815	yes	crack	3	NA	NA	The locksmith can crack the safe easily.	NA	NA	36	NA
0	filler	Filler_33	703	yes	the	4	NA	NA	The locksmith can crack the safe easily.	NA	NA	36	NA
0	filler	Filler_33	1239	yes	safe	5	NA	NA	The locksmith can crack the safe easily.	NA	NA	36	NA
0	filler	Filler_33	1111	yes	easily.	6	NA	NA	The locksmith can crack the safe easily.	NA	NA	36	NA
0	critical_compatible	Critical_11	684	yes	The	0	REGION_D0	NA	The suspicion that the senator annoyed him was absolutely true.	suspicion	was_absolutely_true.	37	dist1
0	critical_compatible	Critical_11	991	yes	suspicion	1	REGION_N0	NA	The suspicion that the senator annoyed him was absolutely true.	suspicion	was_absolutely_true.	37	dist1
0	critical_compatible	Critical_11	647	yes	that	2	REGION_0_0	NA	The suspicion that the senator annoyed him was absolutely true.	suspicion	was_absolutely_true.	37	dist1
0	critical_compatible	Critical_11	823	yes	the	3	REGION_0_1	NA	The suspicion that the senator annoyed him was absolutely true.	suspicion	was_absolutely_true.	37	dist1
0	critical_compatible	Critical_11	1431	yes	senator	4	REGION_0_2	NA	The suspicion that the senator annoyed him was absolutely true.	suspicion	was_absolutely_true.	37	dist1
0	critical_compatible	Critical_11	2855	yes	annoyed	5	REGION_2_0	NA	The suspicion that the senator annoyed him was absolutely true.	suspicion	was_absolutely_true.	37	dist1
0	critical_compatible	Critical_11	831	yes	him	6	REGION_2_1	NA	The suspicion that the senator annoyed him was absolutely true.	suspicion	was_absolutely_true.	37	dist1
0	critical_compatible	Critical_11	663	yes	was	7	REGION_3_0	NA	The suspicion that the senator annoyed him was absolutely true.	suspicion	was_absolutely_true.	37	dist1
0	critical_compatible	Critical_11	1151	yes	absolutely	8	REGION_3_1	NA	The suspicion that the senator annoyed him was absolutely true.	suspicion	was_absolutely_true.	37	dist1
0	critical_compatible	Critical_11	983	yes	true.	9	REGION_3_2	NA	The suspicion that the senator annoyed him was absolutely true.	suspicion	was_absolutely_true.	37	dist1
0	filler	Filler_20	1030	yes	The	0	NA	NA	The private tutor explained the assignment carefully.	NA	NA	41	NA
0	filler	Filler_20	999	yes	private	1	NA	NA	The private tutor explained the assignment carefully.	NA	NA	41	NA
0	filler	Filler_20	1544	yes	tutor	2	NA	NA	The private tutor explained the assignment carefully.	NA	NA	41	NA
0	filler	Filler_20	1086	yes	explained	3	NA	NA	The private tutor explained the assignment carefully.	NA	NA	41	NA
0	filler	Filler_20	959	yes	the	4	NA	NA	The private tutor explained the assignment carefully.	NA	NA	41	NA
0	filler	Filler_20	1079	yes	assignment	5	NA	NA	The private tutor explained the assignment carefully.	NA	NA	41	NA
0	filler	Filler_20	1031	yes	carefully.	6	NA	NA	The private tutor explained the assignment carefully.	NA	NA	41	NA
0	critical_compatible	Critical_5	597	yes	The	0	REGION_D0	NA	The admission that the politician was refuted did not bother the farmer.	admission	did_not_bother_the_farmer.	44	dist1
0	critical_compatible	Critical_5	1192	yes	admission	1	REGION_N0	NA	The admission that the politician was refuted did not bother the farmer.	admission	did_not_bother_the_farmer.	44	dist1
0	critical_compatible	Critical_5	767	yes	that	2	REGION_0_0	NA	The admission that the politician was refuted did not bother the farmer.	admission	did_not_bother_the_farmer.	44	dist1
0	critical_compatible	Critical_5	471	yes	the	3	REGION_0_1	NA	The admission that the politician was refuted did not bother the farmer.	admission	did_not_bother_the_farmer.	44	dist1
0	critical_compatible	Critical_5	1047	yes	politician	4	REGION_0_2	NA	The admission that the politician was refuted did not bother the farmer.	admission	did_not_bother_the_farmer.	44	dist1
0	critical_compatible	Critical_5	743	yes	was	5	REGION_2_0	NA	The admission that the politician was refuted did not bother the farmer.	admission	did_not_bother_the_farmer.	44	dist1
0	critical_compatible	Critical_5	2223	yes	refuted	6	REGION_2_1	NA	The admission that the politician was refuted did not bother the farmer.	admission	did_not_bother_the_farmer.	44	dist1
0	critical_compatible	Critical_5	1463	yes	did	7	REGION_3_0	NA	The admission that the politician was refuted did not bother the farmer.	admission	did_not_bother_the_farmer.	44	dist1
0	critical_compatible	Critical_5	1012	yes	not	8	REGION_3_1	NA	The admission that the politician was refuted did not bother the farmer.	admission	did_not_bother_the_farmer.	44	dist1
0	critical_compatible	Critical_5	791	yes	bother	9	REGION_3_2	NA	The admission that the politician was refuted did not bother the farmer.	admission	did_not_bother_the_farmer.	44	dist1
0	critical_compatible	Critical_5	719	yes	the	10	REGION_3_3	NA	The admission that the politician was refuted did not bother the farmer.	admission	did_not_bother_the_farmer.	44	dist1
0	critical_compatible	Critical_5	3555	yes	farmer.	11	REGION_3_4	NA	The admission that the politician was refuted did not bother the farmer.	admission	did_not_bother_the_farmer.	44	dist1
0	critical_incompatible	Critical_12	611	yes	The	0	REGION_D0	NA	The assurance that the extremist was arrested was widely acknowledged.	assurance	was_widely_acknowledged.	46	dist1
0	critical_incompatible	Critical_12	1159	no	assurance	1	REGION_N0	NA	The assurance that the extremist was arrested was widely acknowledged.	assurance	was_widely_acknowledged.	46	dist1
0	critical_incompatible	Critical_12	935	yes	that	2	REGION_0_0	NA	The assurance that the extremist was arrested was widely acknowledged.	assurance	was_widely_acknowledged.	46	dist1
0	critical_incompatible	Critical_12	623	yes	the	3	REGION_0_1	NA	The assurance that the extremist was arrested was widely acknowledged.	assurance	was_widely_acknowledged.	46	dist1
0	critical_incompatible	Critical_12	1511	yes	extremist	4	REGION_0_2	NA	The assurance that the extremist was arrested was widely acknowledged.	assurance	was_widely_acknowledged.	46	dist1
0	critical_incompatible	Critical_12	935	yes	was	5	REGION_2_0	NA	The assurance that the extremist was arrested was widely acknowledged.	assurance	was_widely_acknowledged.	46	dist1
0	critical_incompatible	Critical_12	1271	yes	arrested	6	REGION_2_1	NA	The assurance that the extremist was arrested was widely acknowledged.	assurance	was_widely_acknowledged.	46	dist1
0	critical_incompatible	Critical_12	751	yes	was	7	REGION_3_0	NA	The assurance that the extremist was arrested was widely acknowledged.	assurance	was_widely_acknowledged.	46	dist1
0	critical_incompatible	Critical_12	983	yes	widely	8	REGION_3_1	NA	The assurance that the extremist was arrested was widely acknowledged.	assurance	was_widely_acknowledged.	46	dist1
0	critical_incompatible	Critical_12	1134	yes	acknowledged.	9	REGION_3_2	NA	The assurance that the extremist was arrested was widely acknowledged.	assurance	was_widely_acknowledged.	46	dist1
0	filler	Filler_26	2091	yes	The	0	NA	NA	The administrator who the nurse from the clinic supervised scolded the medic while a patient was brought into the emergency room.	NA	NA	10	NA
0	filler	Filler_26	1975	yes	administrator	1	NA	NA	The administrator who the nurse from the clinic supervised scolded the medic while a patient was brought into the emergency room.	NA	NA	10	NA
0	filler	Filler_26	1079	yes	who	2	NA	NA	The administrator who the nurse from the clinic supervised scolded the medic while a patient was brought into the emergency room.	NA	NA	10	NA
0	filler	Filler_26	1343	yes	the	3	NA	NA	The administrator who the nurse from the clinic supervised scolded the medic while a patient was brought into the emergency room.	NA	NA	10	NA
0	filler	Filler_26	1391	yes	nurse	4	NA	NA	The administrator who the nurse from the clinic supervised scolded the medic while a patient was brought into the emergency room.	NA	NA	10	NA
0	filler	Filler_26	1455	yes	from	5	NA	NA	The administrator who the nurse from the clinic supervised scolded the medic while a patient was brought into the emergency room.	NA	NA	10	NA
0	filler	Filler_26	1919	yes	the	6	NA	NA	The administrator who the nurse from the clinic supervised scolded the medic while a patient was brought into the emergency room.	NA	NA	10	NA
0	filler	Filler_26	1103	yes	clinic	7	NA	NA	The administrator who the nurse from the clinic supervised scolded the medic while a patient was brought into the emergency room.	NA	NA	10	NA
0	filler	Filler_26	2087	yes	supervised	8	NA	NA	The administrator who the nurse from the clinic supervised scolded the medic while a patient was brought into the emergency room.	NA	NA	10	NA
0	filler	Filler_26	2103	yes	scolded	9	NA	NA	The administrator who the nurse from the clinic supervised scolded the medic while a patient was brought into the emergency room.	NA	NA	10	NA
0	filler	Filler_26	958	yes	the	10	NA	NA	The administrator who the nurse from the clinic supervised scolded the medic while a patient was brought into the emergency room.	NA	NA	10	NA
0	filler	Filler_26	1343	yes	medic	11	NA	NA	The administrator who the nurse from the clinic supervised scolded the medic while a patient was brought into the emergency room.	NA	NA	10	NA
0	filler	Filler_26	1134	yes	while	12	NA	NA	The administrator who the nurse from the clinic supervised scolded the medic while a patient was brought into the emergency room.	NA	NA	10	NA
0	filler	Filler_26	1126	yes	a	13	NA	NA	The administrator who the nurse from the clinic supervised scolded the medic while a patient was brought into the emergency room.	NA	NA	10	NA
0	filler	Filler_26	982	yes	patient	14	NA	NA	The administrator who the nurse from the clinic supervised scolded the medic while a patient was brought into the emergency room.	NA	NA	10	NA
0	filler	Filler_26	1209	yes	was	15	NA	NA	The administrator who the nurse from the clinic supervised scolded the medic while a patient was brought into the emergency room.	NA	NA	10	NA
0	filler	Filler_26	1388	no	brought	16	NA	NA	The administrator who the nurse from the clinic supervised scolded the medic while a patient was brought into the emergency room.	NA	NA	10	NA
0	filler	Filler_26	2167	yes	into	17	NA	NA	The administrator who the nurse from the clinic supervised scolded the medic while a patient was brought into the emergency room.	NA	NA	10	NA
0	filler	Filler_26	1086	yes	the	18	NA	NA	The administrator who the nurse from the clinic supervised scolded the medic while a patient was brought into the emergency room.	NA	NA	10	NA
0	filler	Filler_26	1031	yes	emergency	19	NA	NA	The administrator who the nurse from the clinic supervised scolded the medic while a patient was brought into the emergency room.	NA	NA	10	NA
0	filler	Filler_26	1359	yes	room.	20	NA	NA	The administrator who the nurse from the clinic supervised scolded the medic while a patient was brought into the emergency room.	NA	NA	10	NA
0	filler	Filler_31	1083	yes	The	0	NA	NA	The salesman feared that the printer which the customer bought was damaged.	NA	NA	13	NA
0	filler	Filler_31	1631	yes	salesman	1	NA	NA	The salesman feared that the printer which the customer bought was damaged.	NA	NA	13	NA
0	filler	Filler_31	1742	yes	feared	2	NA	NA	The salesman feared that the printer which the customer bought was damaged.	NA	NA	13	NA
0	filler	Filler_31	926	yes	that	3	NA	NA	The salesman feared that the printer which the customer bought was damaged.	NA	NA	13	NA
0	filler	Filler_31	806	yes	the	4	NA	NA	The salesman feared that the printer which the customer bought was damaged.	NA	NA	13	NA
0	filler	Filler_31	2166	yes	printer	5	NA	NA	The salesman feared that the printer which the customer bought was damaged.	NA	NA	13	NA
0	filler	Filler_31	1143	yes	which	6	NA	NA	The salesman feared that the printer which the customer bought was damaged.	NA	NA	13	NA
0	filler	Filler_31	1503	yes	the	7	NA	NA	The salesman feared that the printer which the customer bought was damaged.	NA	NA	13	NA
0	filler	Filler_31	1031	yes	customer	8	NA	NA	The salesman feared that the printer which the customer bought was damaged.	NA	NA	13	NA
0	filler	Filler_31	1902	yes	bought	9	NA	NA	The salesman feared that the printer which the customer bought was damaged.	NA	NA	13	NA
0	filler	Filler_31	1167	yes	was	10	NA	NA	The salesman feared that the printer which the customer bought was damaged.	NA	NA	13	NA
0	filler	Filler_31	1853	yes	damaged.	11	NA	NA	The salesman feared that the printer which the customer bought was damaged.	NA	NA	13	NA
0	filler	Filler_7	3261	yes	During	0	NA	NA	During the season, the choir holds rehearsals in the church regularly.	NA	NA	19	NA
0	filler	Filler_7	814	yes	the	1	NA	NA	During the season, the choir holds rehearsals in the church regularly.	NA	NA	19	NA
0	filler	Filler_7	967	yes	season,	2	NA	NA	During the season, the choir holds rehearsals in the church regularly.	NA	NA	19	NA
0	filler	Filler_7	824	yes	the	3	NA	NA	During the season, the choir holds rehearsals in the church regularly.	NA	NA	19	NA
0	filler	Filler_7	1191	yes	choir	4	NA	NA	During the season, the choir holds rehearsals in the church regularly.	NA	NA	19	NA
0	filler	Filler_7	1695	yes	holds	5	NA	NA	During the season, the choir holds rehearsals in the church regularly.	NA	NA	19	NA
0	filler	Filler_7	1087	yes	rehearsals	6	NA	NA	During the season, the choir holds rehearsals in the church regularly.	NA	NA	19	NA
0	filler	Filler_7	679	yes	in	7	NA	NA	During the season, the choir holds rehearsals in the church regularly.	NA	NA	19	NA
0	filler	Filler_7	677	yes	the	8	NA	NA	During the season, the choir holds rehearsals in the church regularly.	NA	NA	19	NA
0	filler	Filler_7	864	yes	church	9	NA	NA	During the season, the choir holds rehearsals in the church regularly.	NA	NA	19	NA
0	filler	Filler_7	1343	yes	regularly.	10	NA	NA	During the season, the choir holds rehearsals in the church regularly.	NA	NA	19	NA
0	filler	Filler_19	707	yes	The	0	NA	NA	The customer who was on the phone contacted the operator because the new long-distance pricing plan was extremely inconvenient.	NA	NA	32	NA
0	filler	Filler_19	1136	yes	customer	1	NA	NA	The customer who was on the phone contacted the operator because the new long-distance pricing plan was extremely inconvenient.	NA	NA	32	NA
0	filler	Filler_19	847	yes	who	2	NA	NA	The customer who was on the phone contacted the operator because the new long-distance pricing plan was extremely inconvenient.	NA	NA	32	NA
0	filler	Filler_19	775	yes	was	3	NA	NA	The customer who was on the phone contacted the operator because the new long-distance pricing plan was extremely inconvenient.	NA	NA	32	NA
0	filler	Filler_19	1095	no	on	4	NA	NA	The customer who was on the phone contacted the operator because the new long-distance pricing plan was extremely inconvenient.	NA	NA	32	NA
0	filler	Filler_19	1808	yes	the	5	NA	NA	The customer who was on the phone contacted the operator because the new long-distance pricing plan was extremely inconvenient.	NA	NA	32	NA
0	filler	Filler_19	2214	yes	phone	6	NA	NA	The customer who was on the phone contacted the operator because the new long-distance pricing plan was extremely inconvenient.	NA	NA	32	NA
0	filler	Filler_19	3190	yes	contacted	7	NA	NA	The customer who was on the phone contacted the operator because the new long-distance pricing plan was extremely inconvenient.	NA	NA	32	NA
0	filler	Filler_19	2547	yes	the	8	NA	NA	The customer who was on the phone contacted the operator because the new long-distance pricing plan was extremely inconvenient.	NA	NA	32	NA
0	filler	Filler_19	1534	yes	operator	9	NA	NA	The customer who was on the phone contacted the operator because the new long-distance pricing plan was extremely inconvenient.	NA	NA	32	NA
0	filler	Filler_19	1151	yes	because	10	NA	NA	The customer who was on the phone contacted the operator because the new long-distance pricing plan was extremely inconvenient.	NA	NA	32	NA
0	filler	Filler_19	950	yes	the	11	NA	NA	The customer who was on the phone contacted the operator because the new long-distance pricing plan was extremely inconvenient.	NA	NA	32	NA
0	filler	Filler_19	2319	yes	new	12	NA	NA	The customer who was on the phone contacted the operator because the new long-distance pricing plan was extremely inconvenient.	NA	NA	32	NA
0	filler	Filler_19	1950	yes	long-distance	13	NA	NA	The customer who was on the phone contacted the operator because the new long-distance pricing plan was extremely inconvenient.	NA	NA	32	NA
0	filler	Filler_19	2615	yes	pricing	14	NA	NA	The customer who was on the phone contacted the operator because the new long-distance pricing plan was extremely inconvenient.	NA	NA	32	NA
0	filler	Filler_19	1687	yes	plan	15	NA	NA	The customer who was on the phone contacted the operator because the new long-distance pricing plan was extremely inconvenient.	NA	NA	32	NA
0	filler	Filler_19	759	yes	was	16	NA	NA	The customer who was on the phone contacted the operator because the new long-distance pricing plan was extremely inconvenient.	NA	NA	32	NA
0	filler	Filler_19	1151	yes	extremely	17	NA	NA	The customer who was on the phone contacted the operator because the new long-distance pricing plan was extremely inconvenient.	NA	NA	32	NA
0	filler	Filler_19	1272	yes	inconvenient.	18	NA	NA	The customer who was on the phone contacted the operator because the new long-distance pricing plan was extremely inconvenient.	NA	NA	32	NA
0	filler	Filler_29	620	yes	The	0	NA	NA	The janitor who the doorman who was at the hotel chatted with bothered a guest but the manager decided not to fire him for it.	NA	NA	38	NA
0	filler	Filler_29	1040	yes	janitor	1	NA	NA	The janitor who the doorman who was at the hotel chatted with bothered a guest but the manager decided not to fire him for it.	NA	NA	38	NA
0	filler	Filler_29	1527	yes	who	2	NA	NA	The janitor who the doorman who was at the hotel chatted with bothered a guest but the manager decided not to fire him for it.	NA	NA	38	NA
0	filler	Filler_29	1335	yes	the	3	NA	NA	The janitor who the doorman who was at the hotel chatted with bothered a guest but the manager decided not to fire him for it.	NA	NA	38	NA
0	filler	Filler_29	1062	yes	doorman	4	NA	NA	The janitor who the doorman who was at the hotel chatted with bothered a guest but the manager decided not to fire him for it.	NA	NA	38	NA
0	filler	Filler_29	1680	yes	who	5	NA	NA	The janitor who the doorman who was at the hotel chatted with bothered a guest but the manager decided not to fire him for it.	NA	NA	38	NA
0	filler	Filler_29	663	yes	was	6	NA	NA	The janitor who the doorman who was at the hotel chatted with bothered a guest but the manager decided not to fire him for it.	NA	NA	38	NA
0	filler	Filler_29	1063	yes	at	7	NA	NA	The janitor who the doorman who was at the hotel chatted with bothered a guest but the manager decided not to fire him for it.	NA	NA	38	NA
0	filler	Filler_29	894	yes	the	8	NA	NA	The janitor who the doorman who was at the hotel chatted with bothered a guest but the manager decided not to fire him for it.	NA	NA	38	NA
0	filler	Filler_29	759	yes	hotel	9	NA	NA	The janitor who the doorman who was at the hotel chatted with bothered a guest but the manager decided not to fire him for it.	NA	NA	38	NA
0	filler	Filler_29	2463	yes	chatted	10	NA	NA	The janitor who the doorman who was at the hotel chatted with bothered a guest but the manager decided not to fire him for it.	NA	NA	38	NA
0	filler	Filler_29	991	yes	with	11	NA	NA	The janitor who the doorman who was at the hotel chatted with bothered a guest but the manager decided not to fire him for it.	NA	NA	38	NA
0	filler	Filler_29	3415	no	bothered	12	NA	NA	The janitor who the doorman who was at the hotel chatted with bothered a guest but the manager decided not to fire him for it.	NA	NA	38	NA
0	filler	Filler_29	3951	yes	a	13	NA	NA	The janitor who the doorman who was at the hotel chatted with bothered a guest but the manager decided not to fire him for it.	NA	NA	38	NA
0	filler	Filler_29	2045	yes	guest	14	NA	NA	The janitor who the doorman who was at the hotel chatted with bothered a guest but the manager decided not to fire him for it.	NA	NA	38	NA
0	filler	Filler_29	1094	yes	but	15	NA	NA	The janitor who the doorman who was at the hotel chatted with bothered a guest but the manager decided not to fire him for it.	NA	NA	38	NA
0	filler	Filler_29	854	yes	the	16	NA	NA	The janitor who the doorman who was at the hotel chatted with bothered a guest but the manager decided not to fire him for it.	NA	NA	38	NA
0	filler	Filler_29	839	yes	manager	17	NA	NA	The janitor who the doorman who was at the hotel chatted with bothered a guest but the manager decided not to fire him for it.	NA	NA	38	NA
0	filler	Filler_29	1286	yes	decided	18	NA	NA	The janitor who the doorman who was at the hotel chatted with bothered a guest but the manager decided not to fire him for it.	NA	NA	38	NA
0	filler	Filler_29	655	yes	not	19	NA	NA	The janitor who the doorman who was at the hotel chatted with bothered a guest but the manager decided not to fire him for it.	NA	NA	38	NA
0	filler	Filler_29	750	yes	to	20	NA	NA	The janitor who the doorman who was at the hotel chatted with bothered a guest but the manager decided not to fire him for it.	NA	NA	38	NA
0	filler	Filler_29	959	yes	fire	21	NA	NA	The janitor who the doorman who was at the hotel chatted with bothered a guest but the manager decided not to fire him for it.	NA	NA	38	NA
0	filler	Filler_29	1230	yes	him	22	NA	NA	The janitor who the doorman who was at the hotel chatted with bothered a guest but the manager decided not to fire him for it.	NA	NA	38	NA
0	filler	Filler_29	1007	yes	for	23	NA	NA	The janitor who the doorman who was at the hotel chatted with bothered a guest but the manager decided not to fire him for it.	NA	NA	38	NA
0	filler	Filler_29	863	yes	it.	24	NA	NA	The janitor who the doorman who was at the hotel chatted with bothered a guest but the manager decided not to fire him for it.	NA	NA	38	NA
0	critical_incompatible	Critical_8	834	yes	The	0	REGION_D0	NA	The confirmation that the child wrote the newspaper article was very interesting.	confirmation	was_very_interesting.	11	dist1
0	critical_incompatible	Critical_8	3119	yes	confirmation	1	REGION_N0	NA	The confirmation that the child wrote the newspaper article was very interesting.	confirmation	was_very_interesting.	11	dist1
0	critical_incompatible	Critical_8	1303	yes	that	2	REGION_0_0	NA	The confirmation that the child wrote the newspaper article was very interesting.	confirmation	was_very_interesting.	11	dist1
0	critical_incompatible	Critical_8	927	yes	the	3	REGION_0_1	NA	The confirmation that the child wrote the newspaper article was very interesting.	confirmation	was_very_interesting.	11	dist1
0	critical_incompatible	Critical_8	2039	yes	child	4	REGION_0_2	NA	The confirmation that the child wrote the newspaper article was very interesting.	confirmation	was_very_interesting.	11	dist1
0	critical_incompatible	Critical_8	2647	yes	wrote	5	REGION_2_0	NA	The confirmation that the child wrote the newspaper article was very interesting.	confirmation	was_very_interesting.	11	dist1
0	critical_incompatible	Critical_8	1559	yes	the	6	REGION_2_1	NA	The confirmation that the child wrote the newspaper article was very interesting.	confirmation	was_very_interesting.	11	dist1
0	critical_incompatible	Critical_8	1742	yes	newspaper	7	REGION_2_2	NA	The confirmation that the child wrote the newspaper article was very interesting.	confirmation	was_very_interesting.	11	dist1
0	critical_incompatible	Critical_8	1110	yes	article	8	REGION_2_3	NA	The confirmation that the child wrote the newspaper article was very interesting.	confirmation	was_very_interesting.	11	dist1
0	critical_incompatible	Critical_8	831	yes	was	9	REGION_3_0	NA	The confirmation that the child wrote the newspaper article was very interesting.	confirmation	was_very_interesting.	11	dist1
0	critical_incompatible	Critical_8	959	yes	very	10	REGION_3_1	NA	The confirmation that the child wrote the newspaper article was very interesting.	confirmation	was_very_interesting.	11	dist1
0	critical_incompatible	Critical_8	1719	yes	interesting.	11	REGION_3_2	NA	The confirmation that the child wrote the newspaper article was very interesting.	confirmation	was_very_interesting.	11	dist1
0	filler	Filler_1	667	yes	The	0	NA	NA	The mathematician at the banquet baffled the philosopher although she rarely needed anyone else's help.	NA	NA	20	NA
0	filler	Filler_1	1208	yes	mathematician	1	NA	NA	The mathematician at the banquet baffled the philosopher although she rarely needed anyone else's help.	NA	NA	20	NA
0	filler	Filler_1	943	yes	at	2	NA	NA	The mathematician at the banquet baffled the philosopher although she rarely needed anyone else's help.	NA	NA	20	NA
0	filler	Filler_1	813	yes	the	3	NA	NA	The mathematician at the banquet baffled the philosopher although she rarely needed anyone else's help.	NA	NA	20	NA
0	filler	Filler_1	1951	yes	banquet	4	NA	NA	The mathematician at the banquet baffled the philosopher although she rarely needed anyone else's help.	NA	NA	20	NA
0	filler	Filler_1	2079	yes	baffled	5	NA	NA	The mathematician at the banquet baffled the philosopher although she rarely needed anyone else's help.	NA	NA	20	NA
0	filler	Filler_1	959	yes	the	6	NA	NA	The mathematician at the banquet baffled the philosopher although she rarely needed anyone else's help.	NA	NA	20	NA
0	filler	Filler_1	3431	yes	philosopher	7	NA	NA	The mathematician at the banquet baffled the philosopher although she rarely needed anyone else's help.	NA	NA	20	NA
0	filler	Filler_1	1775	yes	although	8	NA	NA	The mathematician at the banquet baffled the philosopher although she rarely needed anyone else's help.	NA	NA	20	NA
0	filler	Filler_1	910	yes	she	9	NA	NA	The mathematician at the banquet baffled the philosopher although she rarely needed anyone else's help.	NA	NA	20	NA
0	filler	Filler_1	1271	yes	rarely	10	NA	NA	The mathematician at the banquet baffled the philosopher although she rarely needed anyone else's help.	NA	NA	20	NA
0	filler	Filler_1	1279	yes	needed	11	NA	NA	The mathematician at the banquet baffled the philosopher although she rarely needed anyone else's help.	NA	NA	20	NA
0	filler	Filler_1	2470	yes	anyone	12	NA	NA	The mathematician at the banquet baffled the philosopher although she rarely needed anyone else's help.	NA	NA	20	NA
0	filler	Filler_1	1632	yes	else's	13	NA	NA	The mathematician at the banquet baffled the philosopher although she rarely needed anyone else's help.	NA	NA	20	NA
0	filler	Filler_1	1543	yes	help.	14	NA	NA	The mathematician at the banquet baffled the philosopher although she rarely needed anyone else's help.	NA	NA	20	NA
0	filler	Filler_13	872	yes	After	0	NA	NA	After the argument, the husband ignored his wife.	NA	NA	31	NA
0	filler	Filler_13	1080	yes	the	1	NA	NA	After the argument, the husband ignored his wife.	NA	NA	31	NA
0	filler	Filler_13	1070	yes	argument,	2	NA	NA	After the argument, the husband ignored his wife.	NA	NA	31	NA
0	filler	Filler_13	943	yes	the	3	NA	NA	After the argument, the husband ignored his wife.	NA	NA	31	NA
0	filler	Filler_13	1015	yes	husband	4	NA	NA	After the argument, the husband ignored his wife.	NA	NA	31	NA
0	filler	Filler_13	12216	no	ignored	5	NA	NA	After the argument, the husband ignored his wife.	NA	NA	31	NA
0	filler	Filler_13	944	yes	his	6	NA	NA	After the argument, the husband ignored his wife.	NA	NA	31	NA
0	filler	Filler_13	919	yes	wife.	7	NA	NA	After the argument, the husband ignored his wife.	NA	NA	31	NA
0	filler	Filler_32	843	yes	The	0	NA	NA	The students studied the surgeon whenever he performed an important operation.	NA	NA	26	NA
0	filler	Filler_32	1144	yes	students	1	NA	NA	The students studied the surgeon whenever he performed an important operation.	NA	NA	26	NA
0	filler	Filler_32	1079	yes	studied	2	NA	NA	The students studied the surgeon whenever he performed an important operation.	NA	NA	26	NA
0	filler	Filler_32	943	yes	the	3	NA	NA	The students studied the surgeon whenever he performed an important operation.	NA	NA	26	NA
0	filler	Filler_32	3279	yes	surgeon	4	NA	NA	The students studied the surgeon whenever he performed an important operation.	NA	NA	26	NA
0	filler	Filler_32	2134	yes	whenever	5	NA	NA	The students studied the surgeon whenever he performed an important operation.	NA	NA	26	NA
0	filler	Filler_32	951	yes	he	6	NA	NA	The students studied the surgeon whenever he performed an important operation.	NA	NA	26	NA
0	filler	Filler_32	1679	yes	performed	7	NA	NA	The students studied the surgeon whenever he performed an important operation.	NA	NA	26	NA
0	filler	Filler_32	1423	yes	an	8	NA	NA	The students studied the surgeon whenever he performed an important operation.	NA	NA	26	NA
0	filler	Filler_32	1431	yes	important	9	NA	NA	The students studied the surgeon whenever he performed an important operation.	NA	NA	26	NA
0	filler	Filler_32	1399	yes	operation.	10	NA	NA	The students studied the surgeon whenever he performed an important operation.	NA	NA	26	NA
0	filler	Filler_28	738	yes	The	0	NA	NA	The astronaut that the journalists who were at the launch worshipped criticized the administrators after he discovered a potential leak in the fuel tank.	NA	NA	30	NA
0	filler	Filler_28	1912	yes	astronaut	1	NA	NA	The astronaut that the journalists who were at the launch worshipped criticized the administrators after he discovered a potential leak in the fuel tank.	NA	NA	30	NA
0	filler	Filler_28	1294	yes	that	2	NA	NA	The astronaut that the journalists who were at the launch worshipped criticized the administrators after he discovered a potential leak in the fuel tank.	NA	NA	30	NA
0	filler	Filler_28	1031	yes	the	3	NA	NA	The astronaut that the journalists who were at the launch worshipped criticized the administrators after he discovered a potential leak in the fuel tank.	NA	NA	30	NA
0	filler	Filler_28	2255	yes	journalists	4	NA	NA	The astronaut that the journalists who were at the launch worshipped criticized the administrators after he discovered a potential leak in the fuel tank.	NA	NA	30	NA
0	filler	Filler_28	1086	yes	who	5	NA	NA	The astronaut that the journalists who were at the launch worshipped criticized the administrators after he discovered a potential leak in the fuel tank.	NA	NA	30	NA
0	filler	Filler_28	2694	yes	were	6	NA	NA	The astronaut that the journalists who were at the launch worshipped criticized the administrators after he discovered a potential leak in the fuel tank.	NA	NA	30	NA
0	filler	Filler_28	3456	yes	at	7	NA	NA	The astronaut that the journalists who were at the launch worshipped criticized the administrators after he discovered a potential leak in the fuel tank.	NA	NA	30	NA
0	filler	Filler_28	1111	yes	the	8	NA	NA	The astronaut that the journalists who were at the launch worshipped criticized the administrators after he discovered a potential leak in the fuel tank.	NA	NA	30	NA
0	filler	Filler_28	918	yes	launch	9	NA	NA	The astronaut that the journalists who were at the launch worshipped criticized the administrators after he discovered a potential leak in the fuel tank.	NA	NA	30	NA
0	filler	Filler_28	3159	no	worshipped	10	NA	NA	The astronaut that the journalists who were at the launch worshipped criticized the administrators after he discovered a potential leak in the fuel tank.	NA	NA	30	NA
0	filler	Filler_28	4887	no	criticized	11	NA	NA	The astronaut that the journalists who were at the launch worshipped criticized the administrators after he discovered a potential leak in the fuel tank.	NA	NA	30	NA
0	filler	Filler_28	2984	yes	the	12	NA	NA	The astronaut that the journalists who were at the launch worshipped criticized the administrators after he discovered a potential leak in the fuel tank.	NA	NA	30	NA
0	filler	Filler_28	2157	yes	administrators	13	NA	NA	The astronaut that the journalists who were at the launch worshipped criticized the administrators after he discovered a potential leak in the fuel tank.	NA	NA	30	NA
0	filler	Filler_28	1198	yes	after	14	NA	NA	The astronaut that the journalists who were at the launch worshipped criticized the administrators after he discovered a potential leak in the fuel tank.	NA	NA	30	NA
0	filler	Filler_28	822	yes	he	15	NA	NA	The astronaut that the journalists who were at the launch worshipped criticized the administrators after he discovered a potential leak in the fuel tank.	NA	NA	30	NA
0	filler	Filler_28	1575	yes	discovered	16	NA	NA	The astronaut that the journalists who were at the launch worshipped criticized the administrators after he discovered a potential leak in the fuel tank.	NA	NA	30	NA
0	filler	Filler_28	790	yes	a	17	NA	NA	The astronaut that the journalists who were at the launch worshipped criticized the administrators after he discovered a potential leak in the fuel tank.	NA	NA	30	NA
0	filler	Filler_28	1350	yes	potential	18	NA	NA	The astronaut that the journalists who were at the launch worshipped criticized the administrators after he discovered a potential leak in the fuel tank.	NA	NA	30	NA
0	filler	Filler_28	956	yes	leak	19	NA	NA	The astronaut that the journalists who were at the launch worshipped criticized the administrators after he discovered a potential leak in the fuel tank.	NA	NA	30	NA
0	filler	Filler_28	735	yes	in	20	NA	NA	The astronaut that the journalists who were at the launch worshipped criticized the administrators after he discovered a potential leak in the fuel tank.	NA	NA	30	NA
0	filler	Filler_28	687	yes	the	21	NA	NA	The astronaut that the journalists who were at the launch worshipped criticized the administrators after he discovered a potential leak in the fuel tank.	NA	NA	30	NA
0	filler	Filler_28	782	yes	fuel	22	NA	NA	The astronaut that the journalists who were at the launch worshipped criticized the administrators after he discovered a potential leak in the fuel tank.	NA	NA	30	NA
0	filler	Filler_28	719	yes	tank.	23	NA	NA	The astronaut that the journalists who were at the launch worshipped criticized the administrators after he discovered a potential leak in the fuel tank.	NA	NA	30	NA
0	critical_compatible	Critical_19	2374	yes	The	0	REGION_D0	NA	The disclosure that the trader hurt him was unnerving.	disclosure	was_unnerving.	35	dist1
0	critical_compatible	Critical_19	3143	yes	disclosure	1	REGION_N0	NA	The disclosure that the trader hurt him was unnerving.	disclosure	was_unnerving.	35	dist1
0	critical_compatible	Critical_19	823	yes	that	2	REGION_0_0	NA	The disclosure that the trader hurt him was unnerving.	disclosure	was_unnerving.	35	dist1
0	critical_compatible	Critical_19	711	yes	the	3	REGION_0_1	NA	The disclosure that the trader hurt him was unnerving.	disclosure	was_unnerving.	35	dist1
0	critical_compatible	Critical_19	1780	yes	trader	4	REGION_0_2	NA	The disclosure that the trader hurt him was unnerving.	disclosure	was_unnerving.	35	dist1
0	critical_compatible	Critical_19	2151	yes	hurt	5	REGION_2_0	NA	The disclosure that the trader hurt him was unnerving.	disclosure	was_unnerving.	35	dist1
0	critical_compatible	Critical_19	935	yes	him	6	REGION_2_1	NA	The disclosure that the trader hurt him was unnerving.	disclosure	was_unnerving.	35	dist1
0	critical_compatible	Critical_19	1415	yes	was	7	REGION_3_0	NA	The disclosure that the trader hurt him was unnerving.	disclosure	was_unnerving.	35	dist1
0	critical_compatible	Critical_19	4304	no	unnerving.	8	REGION_3_1	NA	The disclosure that the trader hurt him was unnerving.	disclosure	was_unnerving.	35	dist1
0	critical_compatible	Critical_16	628	yes	The	0	REGION_D0	NA	The assumption that the criminal stunned everyone was disconcerting.	assumption	was_disconcerting.	42	dist1
0	critical_compatible	Critical_16	1799	yes	assumption	1	REGION_N0	NA	The assumption that the criminal stunned everyone was disconcerting.	assumption	was_disconcerting.	42	dist1
0	critical_compatible	Critical_16	863	yes	that	2	REGION_0_0	NA	The assumption that the criminal stunned everyone was disconcerting.	assumption	was_disconcerting.	42	dist1
0	critical_compatible	Critical_16	879	yes	the	3	REGION_0_1	NA	The assumption that the criminal stunned everyone was disconcerting.	assumption	was_disconcerting.	42	dist1
0	critical_compatible	Critical_16	1015	yes	criminal	4	REGION_0_2	NA	The assumption that the criminal stunned everyone was disconcerting.	assumption	was_disconcerting.	42	dist1
0	critical_compatible	Critical_16	2902	yes	stunned	5	REGION_2_0	NA	The assumption that the criminal stunned everyone was disconcerting.	assumption	was_disconcerting.	42	dist1
0	critical_compatible	Critical_16	766	yes	everyone	6	REGION_2_1	NA	The assumption that the criminal stunned everyone was disconcerting.	assumption	was_disconcerting.	42	dist1
0	critical_compatible	Critical_16	1103	yes	was	7	REGION_3_0	NA	The assumption that the criminal stunned everyone was disconcerting.	assumption	was_disconcerting.	42	dist1
0	critical_compatible	Critical_16	2895	yes	disconcerting.	8	REGION_3_1	NA	The assumption that the criminal stunned everyone was disconcerting.	assumption	was_disconcerting.	42	dist1
1	filler	Practice_2	1112	yes	The	0	NA	NA	The reporter had dinner yesterday with the baseball player who Kevin admired.	NA	NA	5	NA
1	filler	Practice_2	828	yes	reporter	1	NA	NA	The reporter had dinner yesterday with the baseball player who Kevin admired.	NA	NA	5	NA
1	filler	Practice_2	749	yes	had	2	NA	NA	The reporter had dinner yesterday with the baseball player who Kevin admired.	NA	NA	5	NA
1	filler	Practice_2	1203	yes	dinner	3	NA	NA	The reporter had dinner yesterday with the baseball player who Kevin admired.	NA	NA	5	NA
1	filler	Practice_2	624	yes	yesterday	4	NA	NA	The reporter had dinner yesterday with the baseball player who Kevin admired.	NA	NA	5	NA
1	filler	Practice_2	560	yes	with	5	NA	NA	The reporter had dinner yesterday with the baseball player who Kevin admired.	NA	NA	5	NA
1	filler	Practice_2	503	yes	the	6	NA	NA	The reporter had dinner yesterday with the baseball player who Kevin admired.	NA	NA	5	NA
1	filler	Practice_2	897	yes	baseball	7	NA	NA	The reporter had dinner yesterday with the baseball player who Kevin admired.	NA	NA	5	NA
1	filler	Practice_2	679	yes	player	8	NA	NA	The reporter had dinner yesterday with the baseball player who Kevin admired.	NA	NA	5	NA
1	filler	Practice_2	698	yes	who	9	NA	NA	The reporter had dinner yesterday with the baseball player who Kevin admired.	NA	NA	5	NA
1	filler	Practice_2	1976	yes	Kevin	10	NA	NA	The reporter had dinner yesterday with the baseball player who Kevin admired.	NA	NA	5	NA
1	filler	Practice_2	1065	yes	admired.	11	NA	NA	The reporter had dinner yesterday with the baseball player who Kevin admired.	NA	NA	5	NA
1	filler	Filler_22	584	yes	The	0	NA	NA	The defender is constantly scolding the keeper.	NA	NA	13	NA
1	filler	Filler_22	831	yes	defender	1	NA	NA	The defender is constantly scolding the keeper.	NA	NA	13	NA
1	filler	Filler_22	756	no	is	2	NA	NA	The defender is constantly scolding the keeper.	NA	NA	13	NA
1	filler	Filler_22	1064	yes	constantly	3	NA	NA	The defender is constantly scolding the keeper.	NA	NA	13	NA
1	filler	Filler_22	857	yes	scolding	4	NA	NA	The defender is constantly scolding the keeper.	NA	NA	13	NA
1	filler	Filler_22	639	yes	the	5	NA	NA	The defender is constantly scolding the keeper.	NA	NA	13	NA
1	filler	Filler_22	789	yes	keeper.	6	NA	NA	The defender is constantly scolding the keeper.	NA	NA	13	NA
1	critical_compatible	Critical_4	529	yes	The	0	REGION_D0	NA	The confirmation that the dancer made people happy was exciting.	confirmation	was_exciting.	39	dist1
1	critical_compatible	Critical_4	945	yes	confirmation	1	REGION_N0	NA	The confirmation that the dancer made people happy was exciting.	confirmation	was_exciting.	39	dist1
1	critical_compatible	Critical_4	639	yes	that	2	REGION_0_0	NA	The confirmation that the dancer made people happy was exciting.	confirmation	was_exciting.	39	dist1
1	critical_compatible	Critical_4	822	yes	the	3	REGION_0_1	NA	The confirmation that the dancer made people happy was exciting.	confirmation	was_exciting.	39	dist1
1	critical_compatible	Critical_4	806	yes	dancer	4	REGION_0_2	NA	The confirmation that the dancer made people happy was exciting.	confirmation	was_exciting.	39	dist1
1	critical_compatible	Critical_4	819	yes	made	5	REGION_2_0	NA	The confirmation that the dancer made people happy was exciting.	confirmation	was_exciting.	39	dist1
1	critical_compatible	Critical_4	729	yes	people	6	REGION_2_1	NA	The confirmation that the dancer made people happy was exciting.	confirmation	was_exciting.	39	dist1
1	critical_compatible	Critical_4	774	yes	happy	7	REGION_2_2	NA	The confirmation that the dancer made people happy was exciting.	confirmation	was_exciting.	39	dist1
1	critical_compatible	Critical_4	456	yes	was	8	REGION_3_0	NA	The confirmation that the dancer made people happy was exciting.	confirmation	was_exciting.	39	dist1
1	critical_compatible	Critical_4	618	yes	exciting.	9	REGION_3_1	NA	The confirmation that the dancer made people happy was exciting.	confirmation	was_exciting.	39	dist1
1	critical_compatible	Critical_16	959	yes	The	0	REGION_D0	NA	The admission that the criminal stunned everyone was disconcerting.	admission	was_disconcerting.	46	dist1
1	critical_compatible	Critical_16	1673	yes	admission	1	REGION_N0	NA	The admission that the criminal stunned everyone was disconcerting.	admission	was_disconcerting.	46	dist1
1	critical_compatible	Critical_16	740	yes	that	2	REGION_0_0	NA	The admission that the criminal stunned everyone was disconcerting.	admission	was_disconcerting.	46	dist1
1	critical_compatible	Critical_16	674	yes	the	3	REGION_0_1	NA	The admission that the criminal stunned everyone was disconcerting.	admission	was_disconcerting.	46	dist1
1	critical_compatible	Critical_16	678	yes	criminal	4	REGION_0_2	NA	The admission that the criminal stunned everyone was disconcerting.	admission	was_disconcerting.	46	dist1
1	critical_compatible	Critical_16	1956	yes	stunned	5	REGION_2_0	NA	The admission that the criminal stunned everyone was disconcerting.	admission	was_disconcerting.	46	dist1
1	critical_compatible	Critical_16	687	yes	everyone	6	REGION_2_1	NA	The admission that the criminal stunned everyone was disconcerting.	admission	was_disconcerting.	46	dist1
1	critical_compatible	Critical_16	497	yes	was	7	REGION_3_0	NA	The admission that the criminal stunned everyone was disconcerting.	admission	was_disconcerting.	46	dist1
1	critical_compatible	Critical_16	1364	yes	disconcerting.	8	REGION_3_1	NA	The admission that the criminal stunned everyone was disconcerting.	admission	was_disconcerting.	46	dist1
1	filler	Practice_0	3286	yes	The	0	NA	NA	The semester will start next week, but the students and teachers are not ready.	NA	NA	4	NA
1	filler	Practice_0	1426	yes	semester	1	NA	NA	The semester will start next week, but the students and teachers are not ready.	NA	NA	4	NA
1	filler	Practice_0	951	yes	will	2	NA	NA	The semester will start next week, but the students and teachers are not ready.	NA	NA	4	NA
1	filler	Practice_0	1070	yes	start	3	NA	NA	The semester will start next week, but the students and teachers are not ready.	NA	NA	4	NA
1	filler	Practice_0	1136	yes	next	4	NA	NA	The semester will start next week, but the students and teachers are not ready.	NA	NA	4	NA
1	filler	Practice_0	797	yes	week,	5	NA	NA	The semester will start next week, but the students and teachers are not ready.	NA	NA	4	NA
1	filler	Practice_0	696	yes	but	6	NA	NA	The semester will start next week, but the students and teachers are not ready.	NA	NA	4	NA
1	filler	Practice_0	639	yes	the	7	NA	NA	The semester will start next week, but the students and teachers are not ready.	NA	NA	4	NA
1	filler	Practice_0	1029	yes	students	8	NA	NA	The semester will start next week, but the students and teachers are not ready.	NA	NA	4	NA
1	filler	Practice_0	624	yes	and	9	NA	NA	The semester will start next week, but the students and teachers are not ready.	NA	NA	4	NA
1	filler	Practice_0	668	yes	teachers	10	NA	NA	The semester will start next week, but the students and teachers are not ready.	NA	NA	4	NA
1	filler	Practice_0	1305	yes	are	11	NA	NA	The semester will start next week, but the students and teachers are not ready.	NA	NA	4	NA
1	filler	Practice_0	786	yes	not	12	NA	NA	The semester will start next week, but the students and teachers are not ready.	NA	NA	4	NA
1	filler	Practice_0	818	yes	ready.	13	NA	NA	The semester will start next week, but the students and teachers are not ready.	NA	NA	4	NA
1	filler	Filler_28	443	yes	The	0	NA	NA	The astronaut that the journalists who were at the launch worshipped criticized the administrators after he discovered a potential leak in the fuel tank.	NA	NA	31	NA
1	filler	Filler_28	656	yes	astronaut	1	NA	NA	The astronaut that the journalists who were at the launch worshipped criticized the administrators after he discovered a potential leak in the fuel tank.	NA	NA	31	NA
1	filler	Filler_28	578	yes	that	2	NA	NA	The astronaut that the journalists who were at the launch worshipped criticized the administrators after he discovered a potential leak in the fuel tank.	NA	NA	31	NA
1	filler	Filler_28	959	yes	the	3	NA	NA	The astronaut that the journalists who were at the launch worshipped criticized the administrators after he discovered a potential leak in the fuel tank.	NA	NA	31	NA
1	filler	Filler_28	606	yes	journalists	4	NA	NA	The astronaut that the journalists who were at the launch worshipped criticized the administrators after he discovered a potential leak in the fuel tank.	NA	NA	31	NA
1	filler	Filler_28	629	yes	who	5	NA	NA	The astronaut that the journalists who were at the launch worshipped criticized the administrators after he discovered a potential leak in the fuel tank.	NA	NA	31	NA
1	filler	Filler_28	1119	yes	were	6	NA	NA	The astronaut that the journalists who were at the launch worshipped criticized the administrators after he discovered a potential leak in the fuel tank.	NA	NA	31	NA
1	filler	Filler_28	681	yes	at	7	NA	NA	The astronaut that the journalists who were at the launch worshipped criticized the administrators after he discovered a potential leak in the fuel tank.	NA	NA	31	NA
1	filler	Filler_28	558	yes	the	8	NA	NA	The astronaut that the journalists who were at the launch worshipped criticized the administrators after he discovered a potential leak in the fuel tank.	NA	NA	31	NA
1	filler	Filler_28	1136	yes	launch	9	NA	NA	The astronaut that the journalists who were at the launch worshipped criticized the administrators after he discovered a potential leak in the fuel tank.	NA	NA	31	NA
1	filler	Filler_28	1140	yes	worshipped	10	NA	NA	The astronaut that the journalists who were at the launch worshipped criticized the administrators after he discovered a potential leak in the fuel tank.	NA	NA	31	NA
1	filler	Filler_28	2349	yes	criticized	11	NA	NA	The astronaut that the journalists who were at the launch worshipped criticized the administrators after he discovered a potential leak in the fuel tank.	NA	NA	31	NA
1	filler	Filler_28	507	yes	the	12	NA	NA	The astronaut that the journalists who were at the launch worshipped criticized the administrators after he discovered a potential leak in the fuel tank.	NA	NA	31	NA
1	filler	Filler_28	1134	no	administrators	13	NA	NA	The astronaut that the journalists who were at the launch worshipped criticized the administrators after he discovered a potential leak in the fuel tank.	NA	NA	31	NA
1	filler	Filler_28	918	yes	after	14	NA	NA	The astronaut that the journalists who were at the launch worshipped criticized the administrators after he discovered a potential leak in the fuel tank.	NA	NA	31	NA
1	filler	Filler_28	734	yes	he	15	NA	NA	The astronaut that the journalists who were at the launch worshipped criticized the administrators after he discovered a potential leak in the fuel tank.	NA	NA	31	NA
1	filler	Filler_28	783	yes	discovered	16	NA	NA	The astronaut that the journalists who were at the launch worshipped criticized the administrators after he discovered a potential leak in the fuel tank.	NA	NA	31	NA
