workerid	condition	item	rt	correct	word	wordInItem	Region	RegionFine	sentence	Noun	Continuation	trial	group
1	filler	Filler_35	1074	yes	Yesterday	0	NA	NA	Yesterday the swimmer saw only a turtle at the beach.	NA	NA	8	238
1	filler	Filler_35	698	yes	the	1	NA	NA	Yesterday the swimmer saw only a turtle at the beach.	NA	NA	8	238
1	filler	Filler_35	971	yes	swimmer	2	NA	NA	Yesterday the swimmer saw only a turtle at the beach.	NA	NA	8	238
1	filler	Filler_35	856	yes	saw	3	NA	NA	Yesterday the swimmer saw only a turtle at the beach.	NA	NA	8	238
1	filler	Filler_35	973	yes	only	4	NA	NA	Yesterday the swimmer saw only a turtle at the beach.	NA	NA	8	238
1	filler	Filler_35	560	yes	a	5	NA	NA	Yesterday the swimmer saw only a turtle at the beach.	NA	NA	8	238
1	filler	Filler_35	1951	yes	turtle	6	NA	NA	Yesterday the swimmer saw only a turtle at the beach.	NA	NA	8	238
1	filler	Filler_35	993	yes	at	7	NA	NA	Yesterday the swimmer saw only a turtle at the beach.	NA	NA	8	238
1	filler	Filler_35	596	yes	the	8	NA	NA	Yesterday the swimmer saw only a turtle at the beach.	NA	NA	8	238
1	filler	Filler_35	735	yes	beach.	9	NA	NA	Yesterday the swimmer saw only a turtle at the beach.	NA	NA	8	238
1	filler	Filler_29	522	yes	The	0	NA	NA	The janitor who the doorman who was at the hotel chatted with bothered a guest but the manager decided not to fire him for it.	NA	NA	10	238
1	filler	Filler_29	992	yes	janitor	1	NA	NA	The janitor who the doorman who was at the hotel chatted with bothered a guest but the manager decided not to fire him for it.	NA	NA	10	238
1	filler	Filler_29	688	yes	who	2	NA	NA	The janitor who the doorman who was at the hotel chatted with bothered a guest but the manager decided not to fire him for it.	NA	NA	10	238
1	filler	Filler_29	1268	yes	the	3	NA	NA	The janitor who the doorman who was at the hotel chatted with bothered a guest but the manager decided not to fire him for it.	NA	NA	10	238
1	filler	Filler_29	931	yes	doorman	4	NA	NA	The janitor who the doorman who was at the hotel chatted with bothered a guest but the manager decided not to fire him for it.	NA	NA	10	238
1	filler	Filler_29	2174	yes	who	5	NA	NA	The janitor who the doorman who was at the hotel chatted with bothered a guest but the manager decided not to fire him for it.	NA	NA	10	238
1	filler	Filler_29	795	yes	was	6	NA	NA	The janitor who the doorman who was at the hotel chatted with bothered a guest but the manager decided not to fire him for it.	NA	NA	10	238
1	filler	Filler_29	1048	yes	at	7	NA	NA	The janitor who the doorman who was at the hotel chatted with bothered a guest but the manager decided not to fire him for it.	NA	NA	10	238
1	filler	Filler_29	756	yes	the	8	NA	NA	The janitor who the doorman who was at the hotel chatted with bothered a guest but the manager decided not to fire him for it.	NA	NA	10	238
1	filler	Filler_29	903	yes	hotel	9	NA	NA	The janitor who the doorman who was at the hotel chatted with bothered a guest but the manager decided not to fire him for it.	NA	NA	10	238
1	filler	Filler_29	1054	yes	chatted	10	NA	NA	The janitor who the doorman who was at the hotel chatted with bothered a guest but the manager decided not to fire him for it.	NA	NA	10	238
1	filler	Filler_29	687	yes	with	11	NA	NA	The janitor who the doorman who was at the hotel chatted with bothered a guest but the manager decided not to fire him for it.	NA	NA	10	238
1	filler	Filler_29	2065	yes	bothered	12	NA	NA	The janitor who the doorman who was at the hotel chatted with bothered a guest but the manager decided not to fire him for it.	NA	NA	10	238
1	filler	Filler_29	1184	yes	a	13	NA	NA	The janitor who the doorman who was at the hotel chatted with bothered a guest but the manager decided not to fire him for it.	NA	NA	10	238
1	filler	Filler_29	910	yes	guest	14	NA	NA	The janitor who the doorman who was at the hotel chatted with bothered a guest but the manager decided not to fire him for it.	NA	NA	10	238
1	filler	Filler_29	961	yes	but	15	NA	NA	The janitor who the doorman who was at the hotel chatted with bothered a guest but the manager decided not to fire him for it.	NA	NA	10	238
1	filler	Filler_29	777	yes	the	16	NA	NA	The janitor who the doorman who was at the hotel chatted with bothered a guest but the manager decided not to fire him for it.	NA	NA	10	238
1	filler	Filler_29	1033	yes	manager	17	NA	NA	The janitor who the doorman who was at the hotel chatted with bothered a guest but the manager decided not to fire him for it.	NA	NA	10	238
1	filler	Filler_29	677	yes	decided	18	NA	NA	The janitor who the doorman who was at the hotel chatted with bothered a guest but the manager decided not to fire him for it.	NA	NA	10	238
1	filler	Filler_29	1104	yes	not	19	NA	NA	The janitor who the doorman who was at the hotel chatted with bothered a guest but the manager decided not to fire him for it.	NA	NA	10	238
1	filler	Filler_29	539	yes	to	20	NA	NA	The janitor who the doorman who was at the hotel chatted with bothered a guest but the manager decided not to fire him for it.	NA	NA	10	238
1	filler	Filler_29	719	yes	fire	21	NA	NA	The janitor who the doorman who was at the hotel chatted with bothered a guest but the manager decided not to fire him for it.	NA	NA	10	238
1	filler	Filler_29	722	yes	him	22	NA	NA	The janitor who the doorman who was at the hotel chatted with bothered a guest but the manager decided not to fire him for it.	NA	NA	10	238
1	filler	Filler_29	609	yes	for	23	NA	NA	The janitor who the doorman who was at the hotel chatted with bothered a guest but the manager decided not to fire him for it.	NA	NA	10	238
1	filler	Filler_29	847	yes	it.	24	NA	NA	The janitor who the doorman who was at the hotel chatted with bothered a guest but the manager decided not to fire him for it.	NA	NA	10	238
1	filler	Filler_24	477	yes	The	0	NA	NA	The natives on the island captured the anthropologist because she had information that could help the tribe.	NA	NA	14	238
1	filler	Filler_24	1672	yes	natives	1	NA	NA	The natives on the island captured the anthropologist because she had information that could help the tribe.	NA	NA	14	238
1	filler	Filler_24	796	yes	on	2	NA	NA	The natives on the island captured the anthropologist because she had information that could help the tribe.	NA	NA	14	238
1	filler	Filler_24	937	yes	the	3	NA	NA	The natives on the island captured the anthropologist because she had information that could help the tribe.	NA	NA	14	238
1	filler	Filler_24	825	yes	island	4	NA	NA	The natives on the island captured the anthropologist because she had information that could help the tribe.	NA	NA	14	238
1	filler	Filler_24	1117	yes	captured	5	NA	NA	The natives on the island captured the anthropologist because she had information that could help the tribe.	NA	NA	14	238
1	filler	Filler_24	621	yes	the	6	NA	NA	The natives on the island captured the anthropologist because she had information that could help the tribe.	NA	NA	14	238
1	filler	Filler_24	1258	yes	anthropologist	7	NA	NA	The natives on the island captured the anthropologist because she had information that could help the tribe.	NA	NA	14	238
1	filler	Filler_24	818	yes	because	8	NA	NA	The natives on the island captured the anthropologist because she had information that could help the tribe.	NA	NA	14	238
1	filler	Filler_24	768	yes	she	9	NA	NA	The natives on the island captured the anthropologist because she had information that could help the tribe.	NA	NA	14	238
1	filler	Filler_24	705	yes	had	10	NA	NA	The natives on the island captured the anthropologist because she had information that could help the tribe.	NA	NA	14	238
1	filler	Filler_24	1063	yes	information	11	NA	NA	The natives on the island captured the anthropologist because she had information that could help the tribe.	NA	NA	14	238
1	filler	Filler_24	711	yes	that	12	NA	NA	The natives on the island captured the anthropologist because she had information that could help the tribe.	NA	NA	14	238
1	filler	Filler_24	1507	yes	could	13	NA	NA	The natives on the island captured the anthropologist because she had information that could help the tribe.	NA	NA	14	238
1	filler	Filler_24	1374	no	help	14	NA	NA	The natives on the island captured the anthropologist because she had information that could help the tribe.	NA	NA	14	238
1	filler	Filler_24	995	yes	the	15	NA	NA	The natives on the island captured the anthropologist because she had information that could help the tribe.	NA	NA	14	238
1	filler	Filler_24	942	yes	tribe.	16	NA	NA	The natives on the island captured the anthropologist because she had information that could help the tribe.	NA	NA	14	238
1	filler	Filler_42	1005	yes	The	0	NA	NA	The beggar is often scrounging for cigarettes.	NA	NA	24	238
1	filler	Filler_42	1382	yes	beggar	1	NA	NA	The beggar is often scrounging for cigarettes.	NA	NA	24	238
1	filler	Filler_42	733	yes	is	2	NA	NA	The beggar is often scrounging for cigarettes.	NA	NA	24	238
1	filler	Filler_42	1512	yes	often	3	NA	NA	The beggar is often scrounging for cigarettes.	NA	NA	24	238
1	filler	Filler_42	1205	yes	scrounging	4	NA	NA	The beggar is often scrounging for cigarettes.	NA	NA	24	238
1	filler	Filler_42	714	yes	for	5	NA	NA	The beggar is often scrounging for cigarettes.	NA	NA	24	238
1	filler	Filler_42	795	yes	cigarettes.	6	NA	NA	The beggar is often scrounging for cigarettes.	NA	NA	24	238
1	condition_0	Critical_4	773	yes	The	0	REGION_D0	REGION_D0	The admission shocked everyone.	admission	shocked_everyone.	48	238
1	condition_0	Critical_4	1382	yes	admission	1	REGION_N0	REGION_N0	The admission shocked everyone.	admission	shocked_everyone.	48	238
1	condition_0	Critical_4	1013	yes	shocked	2	REGION_3_0	REGION_3_0	The admission shocked everyone.	admission	shocked_everyone.	48	238
1	condition_0	Critical_4	630	yes	everyone.	3	REGION_3_1	REGION_3_1	The admission shocked everyone.	admission	shocked_everyone.	48	238
1	filler	Filler_11	514	yes	The	0	NA	NA	The citizens of France eat oysters.	NA	NA	17	238
1	filler	Filler_11	1029	yes	citizens	1	NA	NA	The citizens of France eat oysters.	NA	NA	17	238
1	filler	Filler_11	822	yes	of	2	NA	NA	The citizens of France eat oysters.	NA	NA	17	238
1	filler	Filler_11	983	yes	France	3	NA	NA	The citizens of France eat oysters.	NA	NA	17	238
1	filler	Filler_11	1002	yes	eat	4	NA	NA	The citizens of France eat oysters.	NA	NA	17	238
1	filler	Filler_11	1184	yes	oysters.	5	NA	NA	The citizens of France eat oysters.	NA	NA	17	238
1	condition_0	Critical_1	421	yes	The	0	REGION_D0	REGION_D0	The assumption was ridiculous.	assumption	was_ridiculous.	21	238
1	condition_0	Critical_1	1619	yes	assumption	1	REGION_N0	REGION_N0	The assumption was ridiculous.	assumption	was_ridiculous.	21	238
1	condition_0	Critical_1	689	yes	was	2	REGION_3_0	REGION_3_0	The assumption was ridiculous.	assumption	was_ridiculous.	21	238
1	condition_0	Critical_1	1812	yes	ridiculous.	3	REGION_3_1	REGION_3_1	The assumption was ridiculous.	assumption	was_ridiculous.	21	238
1	filler	Filler_14	440	yes	The	0	NA	NA	The engineer who the lawyer who was by the elevator scolded blamed the secretary but nobody listened to his complaints.	NA	NA	23	238
1	filler	Filler_14	817	yes	engineer	1	NA	NA	The engineer who the lawyer who was by the elevator scolded blamed the secretary but nobody listened to his complaints.	NA	NA	23	238
1	filler	Filler_14	731	yes	who	2	NA	NA	The engineer who the lawyer who was by the elevator scolded blamed the secretary but nobody listened to his complaints.	NA	NA	23	238
1	filler	Filler_14	989	yes	the	3	NA	NA	The engineer who the lawyer who was by the elevator scolded blamed the secretary but nobody listened to his complaints.	NA	NA	23	238
1	filler	Filler_14	1627	yes	lawyer	4	NA	NA	The engineer who the lawyer who was by the elevator scolded blamed the secretary but nobody listened to his complaints.	NA	NA	23	238
1	filler	Filler_14	944	yes	who	5	NA	NA	The engineer who the lawyer who was by the elevator scolded blamed the secretary but nobody listened to his complaints.	NA	NA	23	238
1	filler	Filler_14	607	yes	was	6	NA	NA	The engineer who the lawyer who was by the elevator scolded blamed the secretary but nobody listened to his complaints.	NA	NA	23	238
1	filler	Filler_14	1949	yes	by	7	NA	NA	The engineer who the lawyer who was by the elevator scolded blamed the secretary but nobody listened to his complaints.	NA	NA	23	238
1	filler	Filler_14	771	yes	the	8	NA	NA	The engineer who the lawyer who was by the elevator scolded blamed the secretary but nobody listened to his complaints.	NA	NA	23	238
1	filler	Filler_14	1273	yes	elevator	9	NA	NA	The engineer who the lawyer who was by the elevator scolded blamed the secretary but nobody listened to his complaints.	NA	NA	23	238
1	filler	Filler_14	1930	yes	scolded	10	NA	NA	The engineer who the lawyer who was by the elevator scolded blamed the secretary but nobody listened to his complaints.	NA	NA	23	238
1	filler	Filler_14	3518	yes	blamed	11	NA	NA	The engineer who the lawyer who was by the elevator scolded blamed the secretary but nobody listened to his complaints.	NA	NA	23	238
1	filler	Filler_14	685	yes	the	12	NA	NA	The engineer who the lawyer who was by the elevator scolded blamed the secretary but nobody listened to his complaints.	NA	NA	23	238
1	filler	Filler_14	954	yes	secretary	13	NA	NA	The engineer who the lawyer who was by the elevator scolded blamed the secretary but nobody listened to his complaints.	NA	NA	23	238
1	filler	Filler_14	933	yes	but	14	NA	NA	The engineer who the lawyer who was by the elevator scolded blamed the secretary but nobody listened to his complaints.	NA	NA	23	238
1	filler	Filler_14	1455	yes	nobody	15	NA	NA	The engineer who the lawyer who was by the elevator scolded blamed the secretary but nobody listened to his complaints.	NA	NA	23	238
1	filler	Filler_14	871	yes	listened	16	NA	NA	The engineer who the lawyer who was by the elevator scolded blamed the secretary but nobody listened to his complaints.	NA	NA	23	238
1	filler	Filler_14	644	yes	to	17	NA	NA	The engineer who the lawyer who was by the elevator scolded blamed the secretary but nobody listened to his complaints.	NA	NA	23	238
1	filler	Filler_14	855	yes	his	18	NA	NA	The engineer who the lawyer who was by the elevator scolded blamed the secretary but nobody listened to his complaints.	NA	NA	23	238
1	filler	Filler_14	1059	yes	complaints.	19	NA	NA	The engineer who the lawyer who was by the elevator scolded blamed the secretary but nobody listened to his complaints.	NA	NA	23	238
1	filler	Filler_38	555	yes	During	0	NA	NA	During the party everybody was dancing to rock music.	NA	NA	13	238
1	filler	Filler_38	922	yes	the	1	NA	NA	During the party everybody was dancing to rock music.	NA	NA	13	238
1	filler	Filler_38	719	yes	party	2	NA	NA	During the party everybody was dancing to rock music.	NA	NA	13	238
1	filler	Filler_38	826	yes	everybody	3	NA	NA	During the party everybody was dancing to rock music.	NA	NA	13	238
1	filler	Filler_38	474	yes	was	4	NA	NA	During the party everybody was dancing to rock music.	NA	NA	13	238
1	filler	Filler_38	1008	yes	dancing	5	NA	NA	During the party everybody was dancing to rock music.	NA	NA	13	238
1	filler	Filler_38	527	yes	to	6	NA	NA	During the party everybody was dancing to rock music.	NA	NA	13	238
1	filler	Filler_38	1113	yes	rock	7	NA	NA	During the party everybody was dancing to rock music.	NA	NA	13	238
1	filler	Filler_38	755	yes	music.	8	NA	NA	During the party everybody was dancing to rock music.	NA	NA	13	238
1	condition_0	Critical_7	458	yes	The	0	REGION_D0	REGION_D0	The truth was unnerving.	truth	was_unnerving.	29	238
1	condition_0	Critical_7	1042	yes	truth	1	REGION_N0	REGION_N0	The truth was unnerving.	truth	was_unnerving.	29	238
1	condition_0	Critical_7	676	yes	was	2	REGION_3_0	REGION_3_0	The truth was unnerving.	truth	was_unnerving.	29	238
1	condition_0	Critical_7	1569	yes	unnerving.	3	REGION_3_1	REGION_3_1	The truth was unnerving.	truth	was_unnerving.	29	238
1	filler	Filler_51	468	yes	The	0	NA	NA	The rebels who were in the jungle captured the diplomat after they threatened to kill his family for not complying with their demands.	NA	NA	44	238
1	filler	Filler_51	1074	yes	rebels	1	NA	NA	The rebels who were in the jungle captured the diplomat after they threatened to kill his family for not complying with their demands.	NA	NA	44	238
1	filler	Filler_51	618	yes	who	2	NA	NA	The rebels who were in the jungle captured the diplomat after they threatened to kill his family for not complying with their demands.	NA	NA	44	238
1	filler	Filler_51	1128	yes	were	3	NA	NA	The rebels who were in the jungle captured the diplomat after they threatened to kill his family for not complying with their demands.	NA	NA	44	238
1	filler	Filler_51	585	yes	in	4	NA	NA	The rebels who were in the jungle captured the diplomat after they threatened to kill his family for not complying with their demands.	NA	NA	44	238
1	filler	Filler_51	554	no	the	5	NA	NA	The rebels who were in the jungle captured the diplomat after they threatened to kill his family for not complying with their demands.	NA	NA	44	238
1	filler	Filler_51	717	yes	jungle	6	NA	NA	The rebels who were in the jungle captured the diplomat after they threatened to kill his family for not complying with their demands.	NA	NA	44	238
1	filler	Filler_51	848	yes	captured	7	NA	NA	The rebels who were in the jungle captured the diplomat after they threatened to kill his family for not complying with their demands.	NA	NA	44	238
1	filler	Filler_51	707	yes	the	8	NA	NA	The rebels who were in the jungle captured the diplomat after they threatened to kill his family for not complying with their demands.	NA	NA	44	238
1	filler	Filler_51	1038	yes	diplomat	9	NA	NA	The rebels who were in the jungle captured the diplomat after they threatened to kill his family for not complying with their demands.	NA	NA	44	238
1	filler	Filler_51	984	yes	after	10	NA	NA	The rebels who were in the jungle captured the diplomat after they threatened to kill his family for not complying with their demands.	NA	NA	44	238
1	filler	Filler_51	928	yes	they	11	NA	NA	The rebels who were in the jungle captured the diplomat after they threatened to kill his family for not complying with their demands.	NA	NA	44	238
1	filler	Filler_51	931	yes	threatened	12	NA	NA	The rebels who were in the jungle captured the diplomat after they threatened to kill his family for not complying with their demands.	NA	NA	44	238
1	filler	Filler_51	747	yes	to	13	NA	NA	The rebels who were in the jungle captured the diplomat after they threatened to kill his family for not complying with their demands.	NA	NA	44	238
1	filler	Filler_51	945	yes	kill	14	NA	NA	The rebels who were in the jungle captured the diplomat after they threatened to kill his family for not complying with their demands.	NA	NA	44	238
1	filler	Filler_51	692	yes	his	15	NA	NA	The rebels who were in the jungle captured the diplomat after they threatened to kill his family for not complying with their demands.	NA	NA	44	238
1	filler	Filler_51	786	yes	family	16	NA	NA	The rebels who were in the jungle captured the diplomat after they threatened to kill his family for not complying with their demands.	NA	NA	44	238
1	filler	Filler_51	848	yes	for	17	NA	NA	The rebels who were in the jungle captured the diplomat after they threatened to kill his family for not complying with their demands.	NA	NA	44	238
1	filler	Filler_51	1047	yes	not	18	NA	NA	The rebels who were in the jungle captured the diplomat after they threatened to kill his family for not complying with their demands.	NA	NA	44	238
1	filler	Filler_51	832	yes	complying	19	NA	NA	The rebels who were in the jungle captured the diplomat after they threatened to kill his family for not complying with their demands.	NA	NA	44	238
1	filler	Filler_51	596	yes	with	20	NA	NA	The rebels who were in the jungle captured the diplomat after they threatened to kill his family for not complying with their demands.	NA	NA	44	238
1	filler	Filler_51	711	yes	their	21	NA	NA	The rebels who were in the jungle captured the diplomat after they threatened to kill his family for not complying with their demands.	NA	NA	44	238
1	filler	Filler_51	627	yes	demands.	22	NA	NA	The rebels who were in the jungle captured the diplomat after they threatened to kill his family for not complying with their demands.	NA	NA	44	238
1	condition_2	Critical_5	504	yes	The	0	REGION_D0	REGION_D0	The fact that the criminal stunned everyone was disconcerting.	fact	was_disconcerting.	45	238
1	condition_2	Critical_5	842	yes	fact	1	REGION_N0	REGION_N0	The fact that the criminal stunned everyone was disconcerting.	fact	was_disconcerting.	45	238
1	condition_2	Critical_5	823	yes	that	2	REGION_0_0	REGION_0_0	The fact that the criminal stunned everyone was disconcerting.	fact	was_disconcerting.	45	238
1	condition_2	Critical_5	541	yes	the	3	REGION_0_1	REGION_0_1	The fact that the criminal stunned everyone was disconcerting.	fact	was_disconcerting.	45	238
1	condition_2	Critical_5	936	yes	criminal	4	REGION_0_2	REGION_0_2	The fact that the criminal stunned everyone was disconcerting.	fact	was_disconcerting.	45	238
1	condition_2	Critical_5	1199	yes	stunned	5	REGION_2_0	REGION_2_0	The fact that the criminal stunned everyone was disconcerting.	fact	was_disconcerting.	45	238
1	condition_2	Critical_5	667	yes	everyone	6	REGION_2_1	REGION_2_1	The fact that the criminal stunned everyone was disconcerting.	fact	was_disconcerting.	45	238
1	condition_2	Critical_5	651	yes	was	7	REGION_3_0	REGION_3_0	The fact that the criminal stunned everyone was disconcerting.	fact	was_disconcerting.	45	238
1	condition_2	Critical_5	1078	yes	disconcerting.	8	REGION_3_1	REGION_3_1	The fact that the criminal stunned everyone was disconcerting.	fact	was_disconcerting.	45	238
1	filler	Filler_13	553	yes	After	0	NA	NA	After the argument, the husband ignored his wife.	NA	NA	11	238
1	filler	Filler_13	944	yes	the	1	NA	NA	After the argument, the husband ignored his wife.	NA	NA	11	238
1	filler	Filler_13	939	yes	argument,	2	NA	NA	After the argument, the husband ignored his wife.	NA	NA	11	238
1	filler	Filler_13	600	yes	the	3	NA	NA	After the argument, the husband ignored his wife.	NA	NA	11	238
1	filler	Filler_13	1338	yes	husband	4	NA	NA	After the argument, the husband ignored his wife.	NA	NA	11	238
1	filler	Filler_13	867	yes	ignored	5	NA	NA	After the argument, the husband ignored his wife.	NA	NA	11	238
1	filler	Filler_13	831	yes	his	6	NA	NA	After the argument, the husband ignored his wife.	NA	NA	11	238
1	filler	Filler_13	471	yes	wife.	7	NA	NA	After the argument, the husband ignored his wife.	NA	NA	11	238
1	filler	Filler_7	1965	yes	During	0	NA	NA	During the season, the choir holds rehearsals in the church regularly.	NA	NA	25	238
1	filler	Filler_7	693	yes	the	1	NA	NA	During the season, the choir holds rehearsals in the church regularly.	NA	NA	25	238
1	filler	Filler_7	1187	yes	season,	2	NA	NA	During the season, the choir holds rehearsals in the church regularly.	NA	NA	25	238
1	filler	Filler_7	882	yes	the	3	NA	NA	During the season, the choir holds rehearsals in the church regularly.	NA	NA	25	238
1	filler	Filler_7	949	yes	choir	4	NA	NA	During the season, the choir holds rehearsals in the church regularly.	NA	NA	25	238
1	filler	Filler_7	914	yes	holds	5	NA	NA	During the season, the choir holds rehearsals in the church regularly.	NA	NA	25	238
1	filler	Filler_7	920	yes	rehearsals	6	NA	NA	During the season, the choir holds rehearsals in the church regularly.	NA	NA	25	238
1	filler	Filler_7	859	yes	in	7	NA	NA	During the season, the choir holds rehearsals in the church regularly.	NA	NA	25	238
1	filler	Filler_7	724	yes	the	8	NA	NA	During the season, the choir holds rehearsals in the church regularly.	NA	NA	25	238
1	filler	Filler_7	733	yes	church	9	NA	NA	During the season, the choir holds rehearsals in the church regularly.	NA	NA	25	238
1	filler	Filler_7	1063	yes	regularly.	10	NA	NA	During the season, the choir holds rehearsals in the church regularly.	NA	NA	25	238
1	filler	Filler_15	1346	yes	The	0	NA	NA	The librarian put the book onto the shelf.	NA	NA	28	238
1	filler	Filler_15	814	yes	librarian	1	NA	NA	The librarian put the book onto the shelf.	NA	NA	28	238
1	filler	Filler_15	689	yes	put	2	NA	NA	The librarian put the book onto the shelf.	NA	NA	28	238
1	filler	Filler_15	653	yes	the	3	NA	NA	The librarian put the book onto the shelf.	NA	NA	28	238
1	filler	Filler_15	933	yes	book	4	NA	NA	The librarian put the book onto the shelf.	NA	NA	28	238
1	filler	Filler_15	758	yes	onto	5	NA	NA	The librarian put the book onto the shelf.	NA	NA	28	238
1	filler	Filler_15	590	yes	the	6	NA	NA	The librarian put the book onto the shelf.	NA	NA	28	238
1	filler	Filler_15	929	yes	shelf.	7	NA	NA	The librarian put the book onto the shelf.	NA	NA	28	238
1	filler	Filler_37	465	yes	The	0	NA	NA	The gangster who the detective at the club followed implicated the waitress because the police suspected he had murdered the shopkeeper.	NA	NA	33	238
1	filler	Filler_37	698	yes	gangster	1	NA	NA	The gangster who the detective at the club followed implicated the waitress because the police suspected he had murdered the shopkeeper.	NA	NA	33	238
1	filler	Filler_37	723	yes	who	2	NA	NA	The gangster who the detective at the club followed implicated the waitress because the police suspected he had murdered the shopkeeper.	NA	NA	33	238
1	filler	Filler_37	857	yes	the	3	NA	NA	The gangster who the detective at the club followed implicated the waitress because the police suspected he had murdered the shopkeeper.	NA	NA	33	238
1	filler	Filler_37	1183	yes	detective	4	NA	NA	The gangster who the detective at the club followed implicated the waitress because the police suspected he had murdered the shopkeeper.	NA	NA	33	238
1	filler	Filler_37	822	yes	at	5	NA	NA	The gangster who the detective at the club followed implicated the waitress because the police suspected he had murdered the shopkeeper.	NA	NA	33	238
1	filler	Filler_37	606	yes	the	6	NA	NA	The gangster who the detective at the club followed implicated the waitress because the police suspected he had murdered the shopkeeper.	NA	NA	33	238
1	filler	Filler_37	849	yes	club	7	NA	NA	The gangster who the detective at the club followed implicated the waitress because the police suspected he had murdered the shopkeeper.	NA	NA	33	238
1	filler	Filler_37	1214	yes	followed	8	NA	NA	The gangster who the detective at the club followed implicated the waitress because the police suspected he had murdered the shopkeeper.	NA	NA	33	238
1	filler	Filler_37	1808	yes	implicated	9	NA	NA	The gangster who the detective at the club followed implicated the waitress because the police suspected he had murdered the shopkeeper.	NA	NA	33	238
1	filler	Filler_37	528	yes	the	10	NA	NA	The gangster who the detective at the club followed implicated the waitress because the police suspected he had murdered the shopkeeper.	NA	NA	33	238
1	filler	Filler_37	979	yes	waitress	11	NA	NA	The gangster who the detective at the club followed implicated the waitress because the police suspected he had murdered the shopkeeper.	NA	NA	33	238
1	filler	Filler_37	521	yes	because	12	NA	NA	The gangster who the detective at the club followed implicated the waitress because the police suspected he had murdered the shopkeeper.	NA	NA	33	238
1	filler	Filler_37	729	yes	the	13	NA	NA	The gangster who the detective at the club followed implicated the waitress because the police suspected he had murdered the shopkeeper.	NA	NA	33	238
1	filler	Filler_37	1199	yes	police	14	NA	NA	The gangster who the detective at the club followed implicated the waitress because the police suspected he had murdered the shopkeeper.	NA	NA	33	238
1	filler	Filler_37	1115	yes	suspected	15	NA	NA	The gangster who the detective at the club followed implicated the waitress because the police suspected he had murdered the shopkeeper.	NA	NA	33	238
1	filler	Filler_37	655	yes	he	16	NA	NA	The gangster who the detective at the club followed implicated the waitress because the police suspected he had murdered the shopkeeper.	NA	NA	33	238
1	filler	Filler_37	620	yes	had	17	NA	NA	The gangster who the detective at the club followed implicated the waitress because the police suspected he had murdered the shopkeeper.	NA	NA	33	238
1	filler	Filler_37	1312	yes	murdered	18	NA	NA	The gangster who the detective at the club followed implicated the waitress because the police suspected he had murdered the shopkeeper.	NA	NA	33	238
1	filler	Filler_37	537	yes	the	19	NA	NA	The gangster who the detective at the club followed implicated the waitress because the police suspected he had murdered the shopkeeper.	NA	NA	33	238
1	filler	Filler_37	1156	yes	shopkeeper.	20	NA	NA	The gangster who the detective at the club followed implicated the waitress because the police suspected he had murdered the shopkeeper.	NA	NA	33	238
1	filler	Filler_19	2364	yes	The	0	NA	NA	The customer who was on the phone contacted the operator because the new long-distance pricing plan was extremely inconvenient.	NA	NA	19	238
1	filler	Filler_19	858	yes	customer	1	NA	NA	The customer who was on the phone contacted the operator because the new long-distance pricing plan was extremely inconvenient.	NA	NA	19	238
1	filler	Filler_19	717	yes	who	2	NA	NA	The customer who was on the phone contacted the operator because the new long-distance pricing plan was extremely inconvenient.	NA	NA	19	238
1	filler	Filler_19	699	yes	was	3	NA	NA	The customer who was on the phone contacted the operator because the new long-distance pricing plan was extremely inconvenient.	NA	NA	19	238
1	filler	Filler_19	813	yes	on	4	NA	NA	The customer who was on the phone contacted the operator because the new long-distance pricing plan was extremely inconvenient.	NA	NA	19	238
1	filler	Filler_19	617	yes	the	5	NA	NA	The customer who was on the phone contacted the operator because the new long-distance pricing plan was extremely inconvenient.	NA	NA	19	238
1	filler	Filler_19	776	yes	phone	6	NA	NA	The customer who was on the phone contacted the operator because the new long-distance pricing plan was extremely inconvenient.	NA	NA	19	238
1	filler	Filler_19	1408	yes	contacted	7	NA	NA	The customer who was on the phone contacted the operator because the new long-distance pricing plan was extremely inconvenient.	NA	NA	19	238
1	filler	Filler_19	762	yes	the	8	NA	NA	The customer who was on the phone contacted the operator because the new long-distance pricing plan was extremely inconvenient.	NA	NA	19	238
1	filler	Filler_19	761	yes	operator	9	NA	NA	The customer who was on the phone contacted the operator because the new long-distance pricing plan was extremely inconvenient.	NA	NA	19	238
1	filler	Filler_19	725	yes	because	10	NA	NA	The customer who was on the phone contacted the operator because the new long-distance pricing plan was extremely inconvenient.	NA	NA	19	238
1	filler	Filler_19	541	yes	the	11	NA	NA	The customer who was on the phone contacted the operator because the new long-distance pricing plan was extremely inconvenient.	NA	NA	19	238
1	filler	Filler_19	1493	yes	new	12	NA	NA	The customer who was on the phone contacted the operator because the new long-distance pricing plan was extremely inconvenient.	NA	NA	19	238
1	filler	Filler_19	2175	yes	long-distance	13	NA	NA	The customer who was on the phone contacted the operator because the new long-distance pricing plan was extremely inconvenient.	NA	NA	19	238
1	filler	Filler_19	1643	yes	pricing	14	NA	NA	The customer who was on the phone contacted the operator because the new long-distance pricing plan was extremely inconvenient.	NA	NA	19	238
1	filler	Filler_19	536	yes	plan	15	NA	NA	The customer who was on the phone contacted the operator because the new long-distance pricing plan was extremely inconvenient.	NA	NA	19	238
1	filler	Filler_19	912	yes	was	16	NA	NA	The customer who was on the phone contacted the operator because the new long-distance pricing plan was extremely inconvenient.	NA	NA	19	238
1	filler	Filler_19	1131	yes	extremely	17	NA	NA	The customer who was on the phone contacted the operator because the new long-distance pricing plan was extremely inconvenient.	NA	NA	19	238
1	filler	Filler_19	1075	yes	inconvenient.	18	NA	NA	The customer who was on the phone contacted the operator because the new long-distance pricing plan was extremely inconvenient.	NA	NA	19	238
1	filler	Filler_54	415	yes	The	0	NA	NA	The teacher doubted that the test that had taken him a long time to design would be easy to answer.	NA	NA	27	238
1	filler	Filler_54	875	yes	teacher	1	NA	NA	The teacher doubted that the test that had taken him a long time to design would be easy to answer.	NA	NA	27	238
1	filler	Filler_54	1104	yes	doubted	2	NA	NA	The teacher doubted that the test that had taken him a long time to design would be easy to answer.	NA	NA	27	238
1	filler	Filler_54	708	yes	that	3	NA	NA	The teacher doubted that the test that had taken him a long time to design would be easy to answer.	NA	NA	27	238
1	filler	Filler_54	618	yes	the	4	NA	NA	The teacher doubted that the test that had taken him a long time to design would be easy to answer.	NA	NA	27	238
1	filler	Filler_54	798	yes	test	5	NA	NA	The teacher doubted that the test that had taken him a long time to design would be easy to answer.	NA	NA	27	238
1	filler	Filler_54	742	yes	that	6	NA	NA	The teacher doubted that the test that had taken him a long time to design would be easy to answer.	NA	NA	27	238
1	filler	Filler_54	1440	yes	had	7	NA	NA	The teacher doubted that the test that had taken him a long time to design would be easy to answer.	NA	NA	27	238
1	filler	Filler_54	719	yes	taken	8	NA	NA	The teacher doubted that the test that had taken him a long time to design would be easy to answer.	NA	NA	27	238
1	filler	Filler_54	952	yes	him	9	NA	NA	The teacher doubted that the test that had taken him a long time to design would be easy to answer.	NA	NA	27	238
1	filler	Filler_54	713	yes	a	10	NA	NA	The teacher doubted that the test that had taken him a long time to design would be easy to answer.	NA	NA	27	238
1	filler	Filler_54	943	yes	long	11	NA	NA	The teacher doubted that the test that had taken him a long time to design would be easy to answer.	NA	NA	27	238
1	filler	Filler_54	586	yes	time	12	NA	NA	The teacher doubted that the test that had taken him a long time to design would be easy to answer.	NA	NA	27	238
1	filler	Filler_54	822	yes	to	13	NA	NA	The teacher doubted that the test that had taken him a long time to design would be easy to answer.	NA	NA	27	238
1	filler	Filler_54	1282	yes	design	14	NA	NA	The teacher doubted that the test that had taken him a long time to design would be easy to answer.	NA	NA	27	238
1	filler	Filler_54	1048	yes	would	15	NA	NA	The teacher doubted that the test that had taken him a long time to design would be easy to answer.	NA	NA	27	238
1	filler	Filler_54	596	yes	be	16	NA	NA	The teacher doubted that the test that had taken him a long time to design would be easy to answer.	NA	NA	27	238
1	filler	Filler_54	728	yes	easy	17	NA	NA	The teacher doubted that the test that had taken him a long time to design would be easy to answer.	NA	NA	27	238
1	filler	Filler_54	1191	yes	to	18	NA	NA	The teacher doubted that the test that had taken him a long time to design would be easy to answer.	NA	NA	27	238
1	filler	Filler_54	1175	yes	answer.	19	NA	NA	The teacher doubted that the test that had taken him a long time to design would be easy to answer.	NA	NA	27	238
1	filler	Filler_18	393	yes	The	0	NA	NA	The sportsman goes jogging in the park regularly.	NA	NA	37	238
1	filler	Filler_18	784	yes	sportsman	1	NA	NA	The sportsman goes jogging in the park regularly.	NA	NA	37	238
1	filler	Filler_18	1049	yes	goes	2	NA	NA	The sportsman goes jogging in the park regularly.	NA	NA	37	238
1	filler	Filler_18	1342	yes	jogging	3	NA	NA	The sportsman goes jogging in the park regularly.	NA	NA	37	238
1	filler	Filler_18	649	yes	in	4	NA	NA	The sportsman goes jogging in the park regularly.	NA	NA	37	238
1	filler	Filler_18	654	yes	the	5	NA	NA	The sportsman goes jogging in the park regularly.	NA	NA	37	238
1	filler	Filler_18	662	yes	park	6	NA	NA	The sportsman goes jogging in the park regularly.	NA	NA	37	238
1	filler	Filler_18	923	yes	regularly.	7	NA	NA	The sportsman goes jogging in the park regularly.	NA	NA	37	238
1	condition_2	Critical_8	447	yes	The	0	REGION_D0	REGION_D0	The assessment that the politician was refuted did not bother the farmer.	assessment	did_not_bother_the_farmer.	39	238
1	condition_2	Critical_8	1128	yes	assessment	1	REGION_N0	REGION_N0	The assessment that the politician was refuted did not bother the farmer.	assessment	did_not_bother_the_farmer.	39	238
1	condition_2	Critical_8	434	yes	that	2	REGION_0_0	REGION_0_0	The assessment that the politician was refuted did not bother the farmer.	assessment	did_not_bother_the_farmer.	39	238
1	condition_2	Critical_8	795	yes	the	3	REGION_0_1	REGION_0_1	The assessment that the politician was refuted did not bother the farmer.	assessment	did_not_bother_the_farmer.	39	238
1	condition_2	Critical_8	835	yes	politician	4	REGION_0_2	REGION_0_2	The assessment that the politician was refuted did not bother the farmer.	assessment	did_not_bother_the_farmer.	39	238
1	condition_2	Critical_8	901	yes	was	5	REGION_2_0	REGION_2_0	The assessment that the politician was refuted did not bother the farmer.	assessment	did_not_bother_the_farmer.	39	238
1	condition_2	Critical_8	4904	no	refuted	6	REGION_2_1	REGION_2_1	The assessment that the politician was refuted did not bother the farmer.	assessment	did_not_bother_the_farmer.	39	238
1	condition_2	Critical_8	857	yes	did	7	REGION_3_0	REGION_3_0	The assessment that the politician was refuted did not bother the farmer.	assessment	did_not_bother_the_farmer.	39	238
1	condition_2	Critical_8	725	yes	not	8	REGION_3_1	REGION_3_1	The assessment that the politician was refuted did not bother the farmer.	assessment	did_not_bother_the_farmer.	39	238
1	condition_2	Critical_8	693	yes	bother	9	REGION_3_2	REGION_3_2	The assessment that the politician was refuted did not bother the farmer.	assessment	did_not_bother_the_farmer.	39	238
1	condition_2	Critical_8	589	yes	the	10	REGION_3_3	REGION_3_3	The assessment that the politician was refuted did not bother the farmer.	assessment	did_not_bother_the_farmer.	39	238
1	condition_2	Critical_8	1550	yes	farmer.	11	REGION_3_4	REGION_3_4	The assessment that the politician was refuted did not bother the farmer.	assessment	did_not_bother_the_farmer.	39	238
1	filler	Practice_2	666	yes	The	0	NA	NA	The reporter had dinner yesterday with the baseball player who Kevin admired.	NA	NA	6	238
1	filler	Practice_2	1570	yes	reporter	1	NA	NA	The reporter had dinner yesterday with the baseball player who Kevin admired.	NA	NA	6	238
1	filler	Practice_2	842	yes	had	2	NA	NA	The reporter had dinner yesterday with the baseball player who Kevin admired.	NA	NA	6	238
1	filler	Practice_2	1286	yes	dinner	3	NA	NA	The reporter had dinner yesterday with the baseball player who Kevin admired.	NA	NA	6	238
1	filler	Practice_2	849	yes	yesterday	4	NA	NA	The reporter had dinner yesterday with the baseball player who Kevin admired.	NA	NA	6	238
1	filler	Practice_2	619	yes	with	5	NA	NA	The reporter had dinner yesterday with the baseball player who Kevin admired.	NA	NA	6	238
1	filler	Practice_2	649	yes	the	6	NA	NA	The reporter had dinner yesterday with the baseball player who Kevin admired.	NA	NA	6	238
1	filler	Practice_2	2416	yes	baseball	7	NA	NA	The reporter had dinner yesterday with the baseball player who Kevin admired.	NA	NA	6	238
1	filler	Practice_2	1039	yes	player	8	NA	NA	The reporter had dinner yesterday with the baseball player who Kevin admired.	NA	NA	6	238
1	filler	Practice_2	755	yes	who	9	NA	NA	The reporter had dinner yesterday with the baseball player who Kevin admired.	NA	NA	6	238
1	filler	Practice_2	3467	yes	Kevin	10	NA	NA	The reporter had dinner yesterday with the baseball player who Kevin admired.	NA	NA	6	238
1	filler	Practice_2	1476	yes	admired.	11	NA	NA	The reporter had dinner yesterday with the baseball player who Kevin admired.	NA	NA	6	238
1	filler	Filler_26	638	yes	The	0	NA	NA	The administrator who the nurse from the clinic supervised scolded the medic while a patient was brought into the emergency room.	NA	NA	12	238
1	filler	Filler_26	854	yes	administrator	1	NA	NA	The administrator who the nurse from the clinic supervised scolded the medic while a patient was brought into the emergency room.	NA	NA	12	238
1	filler	Filler_26	872	yes	who	2	NA	NA	The administrator who the nurse from the clinic supervised scolded the medic while a patient was brought into the emergency room.	NA	NA	12	238
1	filler	Filler_26	845	yes	the	3	NA	NA	The administrator who the nurse from the clinic supervised scolded the medic while a patient was brought into the emergency room.	NA	NA	12	238
1	filler	Filler_26	618	yes	nurse	4	NA	NA	The administrator who the nurse from the clinic supervised scolded the medic while a patient was brought into the emergency room.	NA	NA	12	238
1	filler	Filler_26	897	yes	from	5	NA	NA	The administrator who the nurse from the clinic supervised scolded the medic while a patient was brought into the emergency room.	NA	NA	12	238
1	filler	Filler_26	610	yes	the	6	NA	NA	The administrator who the nurse from the clinic supervised scolded the medic while a patient was brought into the emergency room.	NA	NA	12	238
1	filler	Filler_26	1035	yes	clinic	7	NA	NA	The administrator who the nurse from the clinic supervised scolded the medic while a patient was brought into the emergency room.	NA	NA	12	238
1	filler	Filler_26	1184	yes	supervised	8	NA	NA	The administrator who the nurse from the clinic supervised scolded the medic while a patient was brought into the emergency room.	NA	NA	12	238
1	filler	Filler_26	874	yes	scolded	9	NA	NA	The administrator who the nurse from the clinic supervised scolded the medic while a patient was brought into the emergency room.	NA	NA	12	238
1	filler	Filler_26	767	yes	the	10	NA	NA	The administrator who the nurse from the clinic supervised scolded the medic while a patient was brought into the emergency room.	NA	NA	12	238
1	filler	Filler_26	883	yes	medic	11	NA	NA	The administrator who the nurse from the clinic supervised scolded the medic while a patient was brought into the emergency room.	NA	NA	12	238
1	filler	Filler_26	705	yes	while	12	NA	NA	The administrator who the nurse from the clinic supervised scolded the medic while a patient was brought into the emergency room.	NA	NA	12	238
1	filler	Filler_26	553	yes	a	13	NA	NA	The administrator who the nurse from the clinic supervised scolded the medic while a patient was brought into the emergency room.	NA	NA	12	238
1	filler	Filler_26	768	yes	patient	14	NA	NA	The administrator who the nurse from the clinic supervised scolded the medic while a patient was brought into the emergency room.	NA	NA	12	238
1	filler	Filler_26	500	yes	was	15	NA	NA	The administrator who the nurse from the clinic supervised scolded the medic while a patient was brought into the emergency room.	NA	NA	12	238
1	filler	Filler_26	1367	yes	brought	16	NA	NA	The administrator who the nurse from the clinic supervised scolded the medic while a patient was brought into the emergency room.	NA	NA	12	238
1	filler	Filler_26	712	yes	into	17	NA	NA	The administrator who the nurse from the clinic supervised scolded the medic while a patient was brought into the emergency room.	NA	NA	12	238
1	filler	Filler_26	1051	yes	the	18	NA	NA	The administrator who the nurse from the clinic supervised scolded the medic while a patient was brought into the emergency room.	NA	NA	12	238
1	filler	Filler_26	659	yes	emergency	19	NA	NA	The administrator who the nurse from the clinic supervised scolded the medic while a patient was brought into the emergency room.	NA	NA	12	238
1	filler	Filler_26	665	yes	room.	20	NA	NA	The administrator who the nurse from the clinic supervised scolded the medic while a patient was brought into the emergency room.	NA	NA	12	238
1	condition_2	Critical_3	561	yes	The	0	REGION_D0	REGION_D0	The complaint that the preacher was idiotic was gaining traction.	complaint	was_gaining_traction.	15	238
1	condition_2	Critical_3	915	yes	complaint	1	REGION_N0	REGION_N0	The complaint that the preacher was idiotic was gaining traction.	complaint	was_gaining_traction.	15	238
1	condition_2	Critical_3	698	yes	that	2	REGION_0_0	REGION_0_0	The complaint that the preacher was idiotic was gaining traction.	complaint	was_gaining_traction.	15	238
1	condition_2	Critical_3	802	yes	the	3	REGION_0_1	REGION_0_1	The complaint that the preacher was idiotic was gaining traction.	complaint	was_gaining_traction.	15	238
1	condition_2	Critical_3	1220	yes	preacher	4	REGION_0_2	REGION_0_2	The complaint that the preacher was idiotic was gaining traction.	complaint	was_gaining_traction.	15	238
1	condition_2	Critical_3	701	yes	was	5	REGION_2_0	REGION_2_0	The complaint that the preacher was idiotic was gaining traction.	complaint	was_gaining_traction.	15	238
1	condition_2	Critical_3	1161	yes	idiotic	6	REGION_2_1	REGION_2_1	The complaint that the preacher was idiotic was gaining traction.	complaint	was_gaining_traction.	15	238
1	condition_2	Critical_3	1140	yes	was	7	REGION_3_0	REGION_3_0	The complaint that the preacher was idiotic was gaining traction.	complaint	was_gaining_traction.	15	238
1	condition_2	Critical_3	1849	yes	gaining	8	REGION_3_1	REGION_3_1	The complaint that the preacher was idiotic was gaining traction.	complaint	was_gaining_traction.	15	238
1	condition_2	Critical_3	944	yes	traction.	9	REGION_3_2	REGION_3_2	The complaint that the preacher was idiotic was gaining traction.	complaint	was_gaining_traction.	15	238
1	filler	Filler_22	512	yes	The	0	NA	NA	The defender is constantly scolding the keeper.	NA	NA	22	238
1	filler	Filler_22	1196	yes	defender	1	NA	NA	The defender is constantly scolding the keeper.	NA	NA	22	238
1	filler	Filler_22	553	no	is	2	NA	NA	The defender is constantly scolding the keeper.	NA	NA	22	238
1	filler	Filler_22	1045	yes	constantly	3	NA	NA	The defender is constantly scolding the keeper.	NA	NA	22	238
1	filler	Filler_22	916	yes	scolding	4	NA	NA	The defender is constantly scolding the keeper.	NA	NA	22	238
1	filler	Filler_22	670	yes	the	5	NA	NA	The defender is constantly scolding the keeper.	NA	NA	22	238
1	filler	Filler_22	646	yes	keeper.	6	NA	NA	The defender is constantly scolding the keeper.	NA	NA	22	238
1	filler	Filler_30	467	yes	The	0	NA	NA	The technician at the show repaired the robot while people were taking a break for coffee.	NA	NA	26	238
1	filler	Filler_30	950	yes	technician	1	NA	NA	The technician at the show repaired the robot while people were taking a break for coffee.	NA	NA	26	238
1	filler	Filler_30	956	yes	at	2	NA	NA	The technician at the show repaired the robot while people were taking a break for coffee.	NA	NA	26	238
1	filler	Filler_30	753	yes	the	3	NA	NA	The technician at the show repaired the robot while people were taking a break for coffee.	NA	NA	26	238
1	filler	Filler_30	824	yes	show	4	NA	NA	The technician at the show repaired the robot while people were taking a break for coffee.	NA	NA	26	238
1	filler	Filler_30	1002	yes	repaired	5	NA	NA	The technician at the show repaired the robot while people were taking a break for coffee.	NA	NA	26	238
1	filler	Filler_30	583	yes	the	6	NA	NA	The technician at the show repaired the robot while people were taking a break for coffee.	NA	NA	26	238
1	filler	Filler_30	888	yes	robot	7	NA	NA	The technician at the show repaired the robot while people were taking a break for coffee.	NA	NA	26	238
1	filler	Filler_30	1024	yes	while	8	NA	NA	The technician at the show repaired the robot while people were taking a break for coffee.	NA	NA	26	238
1	filler	Filler_30	1187	yes	people	9	NA	NA	The technician at the show repaired the robot while people were taking a break for coffee.	NA	NA	26	238
1	filler	Filler_30	931	yes	were	10	NA	NA	The technician at the show repaired the robot while people were taking a break for coffee.	NA	NA	26	238
1	filler	Filler_30	1327	yes	taking	11	NA	NA	The technician at the show repaired the robot while people were taking a break for coffee.	NA	NA	26	238
1	filler	Filler_30	1080	yes	a	12	NA	NA	The technician at the show repaired the robot while people were taking a break for coffee.	NA	NA	26	238
1	filler	Filler_30	1044	yes	break	13	NA	NA	The technician at the show repaired the robot while people were taking a break for coffee.	NA	NA	26	238
1	filler	Filler_30	911	yes	for	14	NA	NA	The technician at the show repaired the robot while people were taking a break for coffee.	NA	NA	26	238
1	filler	Filler_30	1003	yes	coffee.	15	NA	NA	The technician at the show repaired the robot while people were taking a break for coffee.	NA	NA	26	238
1	filler	Filler_17	437	yes	The	0	NA	NA	The spider that the boy who was in the yard captured scared the dog since it was larger than the average spider.	NA	NA	36	238
1	filler	Filler_17	816	yes	spider	1	NA	NA	The spider that the boy who was in the yard captured scared the dog since it was larger than the average spider.	NA	NA	36	238
1	filler	Filler_17	724	yes	that	2	NA	NA	The spider that the boy who was in the yard captured scared the dog since it was larger than the average spider.	NA	NA	36	238
1	filler	Filler_17	619	yes	the	3	NA	NA	The spider that the boy who was in the yard captured scared the dog since it was larger than the average spider.	NA	NA	36	238
1	filler	Filler_17	797	yes	boy	4	NA	NA	The spider that the boy who was in the yard captured scared the dog since it was larger than the average spider.	NA	NA	36	238
1	filler	Filler_17	1090	yes	who	5	NA	NA	The spider that the boy who was in the yard captured scared the dog since it was larger than the average spider.	NA	NA	36	238
1	filler	Filler_17	565	yes	was	6	NA	NA	The spider that the boy who was in the yard captured scared the dog since it was larger than the average spider.	NA	NA	36	238
1	filler	Filler_17	695	yes	in	7	NA	NA	The spider that the boy who was in the yard captured scared the dog since it was larger than the average spider.	NA	NA	36	238
1	filler	Filler_17	490	yes	the	8	NA	NA	The spider that the boy who was in the yard captured scared the dog since it was larger than the average spider.	NA	NA	36	238
1	filler	Filler_17	780	yes	yard	9	NA	NA	The spider that the boy who was in the yard captured scared the dog since it was larger than the average spider.	NA	NA	36	238
1	filler	Filler_17	886	yes	captured	10	NA	NA	The spider that the boy who was in the yard captured scared the dog since it was larger than the average spider.	NA	NA	36	238
1	filler	Filler_17	1501	yes	scared	11	NA	NA	The spider that the boy who was in the yard captured scared the dog since it was larger than the average spider.	NA	NA	36	238
1	filler	Filler_17	617	yes	the	12	NA	NA	The spider that the boy who was in the yard captured scared the dog since it was larger than the average spider.	NA	NA	36	238
1	filler	Filler_17	1146	yes	dog	13	NA	NA	The spider that the boy who was in the yard captured scared the dog since it was larger than the average spider.	NA	NA	36	238
1	filler	Filler_17	976	yes	since	14	NA	NA	The spider that the boy who was in the yard captured scared the dog since it was larger than the average spider.	NA	NA	36	238
1	filler	Filler_17	642	yes	it	15	NA	NA	The spider that the boy who was in the yard captured scared the dog since it was larger than the average spider.	NA	NA	36	238
1	filler	Filler_17	898	yes	was	16	NA	NA	The spider that the boy who was in the yard captured scared the dog since it was larger than the average spider.	NA	NA	36	238
1	filler	Filler_17	1173	yes	larger	17	NA	NA	The spider that the boy who was in the yard captured scared the dog since it was larger than the average spider.	NA	NA	36	238
1	filler	Filler_17	695	yes	than	18	NA	NA	The spider that the boy who was in the yard captured scared the dog since it was larger than the average spider.	NA	NA	36	238
1	filler	Filler_17	848	yes	the	19	NA	NA	The spider that the boy who was in the yard captured scared the dog since it was larger than the average spider.	NA	NA	36	238
1	filler	Filler_17	1270	yes	average	20	NA	NA	The spider that the boy who was in the yard captured scared the dog since it was larger than the average spider.	NA	NA	36	238
1	filler	Filler_17	695	yes	spider.	21	NA	NA	The spider that the boy who was in the yard captured scared the dog since it was larger than the average spider.	NA	NA	36	238
1	filler	Filler_3	647	yes	The	0	NA	NA	The roommate takes out the garbage every week.	NA	NA	40	238
1	filler	Filler_3	1371	yes	roommate	1	NA	NA	The roommate takes out the garbage every week.	NA	NA	40	238
1	filler	Filler_3	720	yes	takes	2	NA	NA	The roommate takes out the garbage every week.	NA	NA	40	238
1	filler	Filler_3	1546	yes	out	3	NA	NA	The roommate takes out the garbage every week.	NA	NA	40	238
1	filler	Filler_3	426	yes	the	4	NA	NA	The roommate takes out the garbage every week.	NA	NA	40	238
1	filler	Filler_3	621	yes	garbage	5	NA	NA	The roommate takes out the garbage every week.	NA	NA	40	238
1	filler	Filler_3	784	yes	every	6	NA	NA	The roommate takes out the garbage every week.	NA	NA	40	238
1	filler	Filler_3	821	yes	week.	7	NA	NA	The roommate takes out the garbage every week.	NA	NA	40	238
1	filler	Filler_34	624	yes	The	0	NA	NA	The woman who was in the apartment hired the plumber despite the fact that he couldn't fix the toilet.	NA	NA	46	238
1	filler	Filler_34	944	yes	woman	1	NA	NA	The woman who was in the apartment hired the plumber despite the fact that he couldn't fix the toilet.	NA	NA	46	238
1	filler	Filler_34	460	yes	who	2	NA	NA	The woman who was in the apartment hired the plumber despite the fact that he couldn't fix the toilet.	NA	NA	46	238
1	filler	Filler_34	768	yes	was	3	NA	NA	The woman who was in the apartment hired the plumber despite the fact that he couldn't fix the toilet.	NA	NA	46	238
1	filler	Filler_34	654	yes	in	4	NA	NA	The woman who was in the apartment hired the plumber despite the fact that he couldn't fix the toilet.	NA	NA	46	238
1	filler	Filler_34	626	yes	the	5	NA	NA	The woman who was in the apartment hired the plumber despite the fact that he couldn't fix the toilet.	NA	NA	46	238
1	filler	Filler_34	803	yes	apartment	6	NA	NA	The woman who was in the apartment hired the plumber despite the fact that he couldn't fix the toilet.	NA	NA	46	238
1	filler	Filler_34	1207	yes	hired	7	NA	NA	The woman who was in the apartment hired the plumber despite the fact that he couldn't fix the toilet.	NA	NA	46	238
1	filler	Filler_34	512	yes	the	8	NA	NA	The woman who was in the apartment hired the plumber despite the fact that he couldn't fix the toilet.	NA	NA	46	238
1	filler	Filler_34	779	yes	plumber	9	NA	NA	The woman who was in the apartment hired the plumber despite the fact that he couldn't fix the toilet.	NA	NA	46	238
1	filler	Filler_34	1116	yes	despite	10	NA	NA	The woman who was in the apartment hired the plumber despite the fact that he couldn't fix the toilet.	NA	NA	46	238
1	filler	Filler_34	590	yes	the	11	NA	NA	The woman who was in the apartment hired the plumber despite the fact that he couldn't fix the toilet.	NA	NA	46	238
1	filler	Filler_34	1173	yes	fact	12	NA	NA	The woman who was in the apartment hired the plumber despite the fact that he couldn't fix the toilet.	NA	NA	46	238
1	filler	Filler_34	737	yes	that	13	NA	NA	The woman who was in the apartment hired the plumber despite the fact that he couldn't fix the toilet.	NA	NA	46	238
1	filler	Filler_34	719	yes	he	14	NA	NA	The woman who was in the apartment hired the plumber despite the fact that he couldn't fix the toilet.	NA	NA	46	238
1	filler	Filler_34	1109	yes	couldn't	15	NA	NA	The woman who was in the apartment hired the plumber despite the fact that he couldn't fix the toilet.	NA	NA	46	238
1	filler	Filler_34	993	yes	fix	16	NA	NA	The woman who was in the apartment hired the plumber despite the fact that he couldn't fix the toilet.	NA	NA	46	238
1	filler	Filler_34	686	yes	the	17	NA	NA	The woman who was in the apartment hired the plumber despite the fact that he couldn't fix the toilet.	NA	NA	46	238
1	filler	Filler_34	873	yes	toilet.	18	NA	NA	The woman who was in the apartment hired the plumber despite the fact that he couldn't fix the toilet.	NA	NA	46	238
1	filler	Filler_21	427	yes	The	0	NA	NA	The audience who was at the club booed the singer before the owner of the bar could remove him from the stage.	NA	NA	38	238
1	filler	Filler_21	1478	yes	audience	1	NA	NA	The audience who was at the club booed the singer before the owner of the bar could remove him from the stage.	NA	NA	38	238
1	filler	Filler_21	516	yes	who	2	NA	NA	The audience who was at the club booed the singer before the owner of the bar could remove him from the stage.	NA	NA	38	238
1	filler	Filler_21	731	yes	was	3	NA	NA	The audience who was at the club booed the singer before the owner of the bar could remove him from the stage.	NA	NA	38	238
1	filler	Filler_21	538	yes	at	4	NA	NA	The audience who was at the club booed the singer before the owner of the bar could remove him from the stage.	NA	NA	38	238
1	filler	Filler_21	752	yes	the	5	NA	NA	The audience who was at the club booed the singer before the owner of the bar could remove him from the stage.	NA	NA	38	238
1	filler	Filler_21	786	yes	club	6	NA	NA	The audience who was at the club booed the singer before the owner of the bar could remove him from the stage.	NA	NA	38	238
1	filler	Filler_21	853	yes	booed	7	NA	NA	The audience who was at the club booed the singer before the owner of the bar could remove him from the stage.	NA	NA	38	238
1	filler	Filler_21	444	yes	the	8	NA	NA	The audience who was at the club booed the singer before the owner of the bar could remove him from the stage.	NA	NA	38	238
1	filler	Filler_21	891	yes	singer	9	NA	NA	The audience who was at the club booed the singer before the owner of the bar could remove him from the stage.	NA	NA	38	238
1	filler	Filler_21	596	yes	before	10	NA	NA	The audience who was at the club booed the singer before the owner of the bar could remove him from the stage.	NA	NA	38	238
1	filler	Filler_21	730	yes	the	11	NA	NA	The audience who was at the club booed the singer before the owner of the bar could remove him from the stage.	NA	NA	38	238
1	filler	Filler_21	840	yes	owner	12	NA	NA	The audience who was at the club booed the singer before the owner of the bar could remove him from the stage.	NA	NA	38	238
1	filler	Filler_21	708	yes	of	13	NA	NA	The audience who was at the club booed the singer before the owner of the bar could remove him from the stage.	NA	NA	38	238
1	filler	Filler_21	544	yes	the	14	NA	NA	The audience who was at the club booed the singer before the owner of the bar could remove him from the stage.	NA	NA	38	238
1	filler	Filler_21	851	yes	bar	15	NA	NA	The audience who was at the club booed the singer before the owner of the bar could remove him from the stage.	NA	NA	38	238
1	filler	Filler_21	592	yes	could	16	NA	NA	The audience who was at the club booed the singer before the owner of the bar could remove him from the stage.	NA	NA	38	238
1	filler	Filler_21	1070	yes	remove	17	NA	NA	The audience who was at the club booed the singer before the owner of the bar could remove him from the stage.	NA	NA	38	238
1	filler	Filler_21	1033	yes	him	18	NA	NA	The audience who was at the club booed the singer before the owner of the bar could remove him from the stage.	NA	NA	38	238
1	filler	Filler_21	718	yes	from	19	NA	NA	The audience who was at the club booed the singer before the owner of the bar could remove him from the stage.	NA	NA	38	238
1	filler	Filler_21	608	yes	the	20	NA	NA	The audience who was at the club booed the singer before the owner of the bar could remove him from the stage.	NA	NA	38	238
1	filler	Filler_21	999	yes	stage.	21	NA	NA	The audience who was at the club booed the singer before the owner of the bar could remove him from the stage.	NA	NA	38	238
1	condition_2	Critical_0	518	yes	The	0	REGION_D0	REGION_D0	The impression that the trader hurt him was unnerving.	impression	was_unnerving.	43	238
1	condition_2	Critical_0	1096	yes	impression	1	REGION_N0	REGION_N0	The impression that the trader hurt him was unnerving.	impression	was_unnerving.	43	238
1	condition_2	Critical_0	664	yes	that	2	REGION_0_0	REGION_0_0	The impression that the trader hurt him was unnerving.	impression	was_unnerving.	43	238
1	condition_2	Critical_0	983	yes	the	3	REGION_0_1	REGION_0_1	The impression that the trader hurt him was unnerving.	impression	was_unnerving.	43	238
1	condition_2	Critical_0	1444	yes	trader	4	REGION_0_2	REGION_0_2	The impression that the trader hurt him was unnerving.	impression	was_unnerving.	43	238
1	condition_2	Critical_0	1350	yes	hurt	5	REGION_2_0	REGION_2_0	The impression that the trader hurt him was unnerving.	impression	was_unnerving.	43	238
1	condition_2	Critical_0	673	yes	him	6	REGION_2_1	REGION_2_1	The impression that the trader hurt him was unnerving.	impression	was_unnerving.	43	238
1	condition_2	Critical_0	681	yes	was	7	REGION_3_0	REGION_3_0	The impression that the trader hurt him was unnerving.	impression	was_unnerving.	43	238
1	condition_2	Critical_0	1322	yes	unnerving.	8	REGION_3_1	REGION_3_1	The impression that the trader hurt him was unnerving.	impression	was_unnerving.	43	238
1	condition_0	Critical_6	742	yes	The	0	REGION_D0	REGION_D0	The belief was very believable.	belief	was_very_believable.	9	238
1	condition_0	Critical_6	1374	yes	belief	1	REGION_N0	REGION_N0	The belief was very believable.	belief	was_very_believable.	9	238
1	condition_0	Critical_6	703	yes	was	2	REGION_3_0	REGION_3_0	The belief was very believable.	belief	was_very_believable.	9	238
1	condition_0	Critical_6	1358	yes	very	3	REGION_3_1	REGION_3_1	The belief was very believable.	belief	was_very_believable.	9	238
1	condition_0	Critical_6	1350	yes	believable.	4	REGION_3_2	REGION_3_2	The belief was very believable.	belief	was_very_believable.	9	238
1	filler	Filler_46	548	yes	The	0	NA	NA	The biker who the police arrested ran a light since he was driving under the influence of alcohol.	NA	NA	20	238
1	filler	Filler_46	861	yes	biker	1	NA	NA	The biker who the police arrested ran a light since he was driving under the influence of alcohol.	NA	NA	20	238
1	filler	Filler_46	606	yes	who	2	NA	NA	The biker who the police arrested ran a light since he was driving under the influence of alcohol.	NA	NA	20	238
1	filler	Filler_46	685	yes	the	3	NA	NA	The biker who the police arrested ran a light since he was driving under the influence of alcohol.	NA	NA	20	238
1	filler	Filler_46	704	yes	police	4	NA	NA	The biker who the police arrested ran a light since he was driving under the influence of alcohol.	NA	NA	20	238
1	filler	Filler_46	857	yes	arrested	5	NA	NA	The biker who the police arrested ran a light since he was driving under the influence of alcohol.	NA	NA	20	238
1	filler	Filler_46	767	yes	ran	6	NA	NA	The biker who the police arrested ran a light since he was driving under the influence of alcohol.	NA	NA	20	238
1	filler	Filler_46	638	yes	a	7	NA	NA	The biker who the police arrested ran a light since he was driving under the influence of alcohol.	NA	NA	20	238
1	filler	Filler_46	1173	yes	light	8	NA	NA	The biker who the police arrested ran a light since he was driving under the influence of alcohol.	NA	NA	20	238
1	filler	Filler_46	1286	yes	since	9	NA	NA	The biker who the police arrested ran a light since he was driving under the influence of alcohol.	NA	NA	20	238
1	filler	Filler_46	1202	yes	he	10	NA	NA	The biker who the police arrested ran a light since he was driving under the influence of alcohol.	NA	NA	20	238
1	filler	Filler_46	553	yes	was	11	NA	NA	The biker who the police arrested ran a light since he was driving under the influence of alcohol.	NA	NA	20	238
1	filler	Filler_46	926	yes	driving	12	NA	NA	The biker who the police arrested ran a light since he was driving under the influence of alcohol.	NA	NA	20	238
1	filler	Filler_46	721	yes	under	13	NA	NA	The biker who the police arrested ran a light since he was driving under the influence of alcohol.	NA	NA	20	238
1	filler	Filler_46	607	yes	the	14	NA	NA	The biker who the police arrested ran a light since he was driving under the influence of alcohol.	NA	NA	20	238
1	filler	Filler_46	681	yes	influence	15	NA	NA	The biker who the police arrested ran a light since he was driving under the influence of alcohol.	NA	NA	20	238
1	filler	Filler_46	931	yes	of	16	NA	NA	The biker who the police arrested ran a light since he was driving under the influence of alcohol.	NA	NA	20	238
1	filler	Filler_46	736	yes	alcohol.	17	NA	NA	The biker who the police arrested ran a light since he was driving under the influence of alcohol.	NA	NA	20	238
1	filler	Filler_40	407	yes	The	0	NA	NA	The intern comforted the patient because he was in great pain.	NA	NA	30	238
1	filler	Filler_40	879	yes	intern	1	NA	NA	The intern comforted the patient because he was in great pain.	NA	NA	30	238
1	filler	Filler_40	973	yes	comforted	2	NA	NA	The intern comforted the patient because he was in great pain.	NA	NA	30	238
1	filler	Filler_40	722	yes	the	3	NA	NA	The intern comforted the patient because he was in great pain.	NA	NA	30	238
1	filler	Filler_40	860	yes	patient	4	NA	NA	The intern comforted the patient because he was in great pain.	NA	NA	30	238
1	filler	Filler_40	758	yes	because	5	NA	NA	The intern comforted the patient because he was in great pain.	NA	NA	30	238
1	filler	Filler_40	647	yes	he	6	NA	NA	The intern comforted the patient because he was in great pain.	NA	NA	30	238
1	filler	Filler_40	567	yes	was	7	NA	NA	The intern comforted the patient because he was in great pain.	NA	NA	30	238
1	filler	Filler_40	548	yes	in	8	NA	NA	The intern comforted the patient because he was in great pain.	NA	NA	30	238
1	filler	Filler_40	1360	yes	great	9	NA	NA	The intern comforted the patient because he was in great pain.	NA	NA	30	238
1	filler	Filler_40	892	yes	pain.	10	NA	NA	The intern comforted the patient because he was in great pain.	NA	NA	30	238
1	filler	Filler_1	415	yes	The	0	NA	NA	The mathematician at the banquet baffled the philosopher although she rarely needed anyone else's help.	NA	NA	32	238
1	filler	Filler_1	975	yes	mathematician	1	NA	NA	The mathematician at the banquet baffled the philosopher although she rarely needed anyone else's help.	NA	NA	32	238
1	filler	Filler_1	725	yes	at	2	NA	NA	The mathematician at the banquet baffled the philosopher although she rarely needed anyone else's help.	NA	NA	32	238
1	filler	Filler_1	455	yes	the	3	NA	NA	The mathematician at the banquet baffled the philosopher although she rarely needed anyone else's help.	NA	NA	32	238
1	filler	Filler_1	923	yes	banquet	4	NA	NA	The mathematician at the banquet baffled the philosopher although she rarely needed anyone else's help.	NA	NA	32	238
1	filler	Filler_1	1706	yes	baffled	5	NA	NA	The mathematician at the banquet baffled the philosopher although she rarely needed anyone else's help.	NA	NA	32	238
1	filler	Filler_1	740	yes	the	6	NA	NA	The mathematician at the banquet baffled the philosopher although she rarely needed anyone else's help.	NA	NA	32	238
1	filler	Filler_1	1094	yes	philosopher	7	NA	NA	The mathematician at the banquet baffled the philosopher although she rarely needed anyone else's help.	NA	NA	32	238
1	filler	Filler_1	1957	yes	although	8	NA	NA	The mathematician at the banquet baffled the philosopher although she rarely needed anyone else's help.	NA	NA	32	238
1	filler	Filler_1	737	yes	she	9	NA	NA	The mathematician at the banquet baffled the philosopher although she rarely needed anyone else's help.	NA	NA	32	238
1	filler	Filler_1	852	yes	rarely	10	NA	NA	The mathematician at the banquet baffled the philosopher although she rarely needed anyone else's help.	NA	NA	32	238
1	filler	Filler_1	768	yes	needed	11	NA	NA	The mathematician at the banquet baffled the philosopher although she rarely needed anyone else's help.	NA	NA	32	238
1	filler	Filler_1	1143	yes	anyone	12	NA	NA	The mathematician at the banquet baffled the philosopher although she rarely needed anyone else's help.	NA	NA	32	238
1	filler	Filler_1	1202	yes	else's	13	NA	NA	The mathematician at the banquet baffled the philosopher although she rarely needed anyone else's help.	NA	NA	32	238
1	filler	Filler_1	896	yes	help.	14	NA	NA	The mathematician at the banquet baffled the philosopher although she rarely needed anyone else's help.	NA	NA	32	238
1	condition_0	Critical_9	1046	yes	The	0	REGION_D0	REGION_D0	The contention was sad to hear.	contention	was_sad_to_hear.	35	238
1	condition_0	Critical_9	1605	yes	contention	1	REGION_N0	REGION_N0	The contention was sad to hear.	contention	was_sad_to_hear.	35	238
1	condition_0	Critical_9	733	yes	was	2	REGION_3_0	REGION_3_0	The contention was sad to hear.	contention	was_sad_to_hear.	35	238
1	condition_0	Critical_9	2480	yes	sad	3	REGION_3_1	REGION_3_1	The contention was sad to hear.	contention	was_sad_to_hear.	35	238
1	condition_0	Critical_9	495	yes	to	4	REGION_3_2	REGION_3_2	The contention was sad to hear.	contention	was_sad_to_hear.	35	238
1	condition_0	Critical_9	710	yes	hear.	5	REGION_3_3	REGION_3_3	The contention was sad to hear.	contention	was_sad_to_hear.	35	238
1	filler	Practice_3	4176	yes	The	0	NA	NA	The therapist set up a meeting with the upset woman and her husband yesterday.	NA	NA	4	238
1	filler	Practice_3	2009	yes	therapist	1	NA	NA	The therapist set up a meeting with the upset woman and her husband yesterday.	NA	NA	4	238
1	filler	Practice_3	1067	yes	set	2	NA	NA	The therapist set up a meeting with the upset woman and her husband yesterday.	NA	NA	4	238
1	filler	Practice_3	1081	yes	up	3	NA	NA	The therapist set up a meeting with the upset woman and her husband yesterday.	NA	NA	4	238
1	filler	Practice_3	940	yes	a	4	NA	NA	The therapist set up a meeting with the upset woman and her husband yesterday.	NA	NA	4	238
1	filler	Practice_3	1450	yes	meeting	5	NA	NA	The therapist set up a meeting with the upset woman and her husband yesterday.	NA	NA	4	238
1	filler	Practice_3	780	yes	with	6	NA	NA	The therapist set up a meeting with the upset woman and her husband yesterday.	NA	NA	4	238
1	filler	Practice_3	766	yes	the	7	NA	NA	The therapist set up a meeting with the upset woman and her husband yesterday.	NA	NA	4	238
1	filler	Practice_3	1761	yes	upset	8	NA	NA	The therapist set up a meeting with the upset woman and her husband yesterday.	NA	NA	4	238
1	filler	Practice_3	884	yes	woman	9	NA	NA	The therapist set up a meeting with the upset woman and her husband yesterday.	NA	NA	4	238
1	filler	Practice_3	688	yes	and	10	NA	NA	The therapist set up a meeting with the upset woman and her husband yesterday.	NA	NA	4	238
1	filler	Practice_3	923	yes	her	11	NA	NA	The therapist set up a meeting with the upset woman and her husband yesterday.	NA	NA	4	238
1	filler	Practice_3	919	yes	husband	12	NA	NA	The therapist set up a meeting with the upset woman and her husband yesterday.	NA	NA	4	238
1	filler	Practice_3	1468	yes	yesterday.	13	NA	NA	The therapist set up a meeting with the upset woman and her husband yesterday.	NA	NA	4	238
1	condition_2	Critical_2	469	yes	The	0	REGION_D0	REGION_D0	The declaration that the student was foolish was a malicious smear.	declaration	was_a_malicious_smear.	31	238
1	condition_2	Critical_2	1248	yes	declaration	1	REGION_N0	REGION_N0	The declaration that the student was foolish was a malicious smear.	declaration	was_a_malicious_smear.	31	238
1	condition_2	Critical_2	550	yes	that	2	REGION_0_0	REGION_0_0	The declaration that the student was foolish was a malicious smear.	declaration	was_a_malicious_smear.	31	238
1	condition_2	Critical_2	540	yes	the	3	REGION_0_1	REGION_0_1	The declaration that the student was foolish was a malicious smear.	declaration	was_a_malicious_smear.	31	238
1	condition_2	Critical_2	985	yes	student	4	REGION_0_2	REGION_0_2	The declaration that the student was foolish was a malicious smear.	declaration	was_a_malicious_smear.	31	238
1	condition_2	Critical_2	765	yes	was	5	REGION_2_0	REGION_2_0	The declaration that the student was foolish was a malicious smear.	declaration	was_a_malicious_smear.	31	238
1	condition_2	Critical_2	1211	yes	foolish	6	REGION_2_1	REGION_2_1	The declaration that the student was foolish was a malicious smear.	declaration	was_a_malicious_smear.	31	238
1	condition_2	Critical_2	1106	yes	was	7	REGION_3_0	REGION_3_0	The declaration that the student was foolish was a malicious smear.	declaration	was_a_malicious_smear.	31	238
1	condition_2	Critical_2	652	yes	a	8	REGION_3_1	REGION_3_1	The declaration that the student was foolish was a malicious smear.	declaration	was_a_malicious_smear.	31	238
1	condition_2	Critical_2	1185	yes	malicious	9	REGION_3_2	REGION_3_2	The declaration that the student was foolish was a malicious smear.	declaration	was_a_malicious_smear.	31	238
1	condition_2	Critical_2	1130	yes	smear.	10	REGION_3_3	REGION_3_3	The declaration that the student was foolish was a malicious smear.	declaration	was_a_malicious_smear.	31	238
1	filler	Practice_0	867	yes	The	0	NA	NA	The semester will start next week, but the students and teachers are not ready.	NA	NA	5	238
1	filler	Practice_0	1470	yes	semester	1	NA	NA	The semester will start next week, but the students and teachers are not ready.	NA	NA	5	238
1	filler	Practice_0	830	yes	will	2	NA	NA	The semester will start next week, but the students and teachers are not ready.	NA	NA	5	238
1	filler	Practice_0	933	yes	start	3	NA	NA	The semester will start next week, but the students and teachers are not ready.	NA	NA	5	238
1	filler	Practice_0	698	yes	next	4	NA	NA	The semester will start next week, but the students and teachers are not ready.	NA	NA	5	238
1	filler	Practice_0	842	yes	week,	5	NA	NA	The semester will start next week, but the students and teachers are not ready.	NA	NA	5	238
1	filler	Practice_0	813	yes	but	6	NA	NA	The semester will start next week, but the students and teachers are not ready.	NA	NA	5	238
1	filler	Practice_0	605	yes	the	7	NA	NA	The semester will start next week, but the students and teachers are not ready.	NA	NA	5	238
1	filler	Practice_0	770	yes	students	8	NA	NA	The semester will start next week, but the students and teachers are not ready.	NA	NA	5	238
1	filler	Practice_0	832	yes	and	9	NA	NA	The semester will start next week, but the students and teachers are not ready.	NA	NA	5	238
1	filler	Practice_0	858	yes	teachers	10	NA	NA	The semester will start next week, but the students and teachers are not ready.	NA	NA	5	238
1	filler	Practice_0	672	yes	are	11	NA	NA	The semester will start next week, but the students and teachers are not ready.	NA	NA	5	238
1	filler	Practice_0	725	yes	not	12	NA	NA	The semester will start next week, but the students and teachers are not ready.	NA	NA	5	238
1	filler	Practice_0	820	yes	ready.	13	NA	NA	The semester will start next week, but the students and teachers are not ready.	NA	NA	5	238
1	filler	Practice_1	753	yes	The	0	NA	NA	The mother of the prisoner sent him packages that contained cookies and novels.	NA	NA	7	238
1	filler	Practice_1	755	yes	mother	1	NA	NA	The mother of the prisoner sent him packages that contained cookies and novels.	NA	NA	7	238
1	filler	Practice_1	896	yes	of	2	NA	NA	The mother of the prisoner sent him packages that contained cookies and novels.	NA	NA	7	238
1	filler	Practice_1	514	yes	the	3	NA	NA	The mother of the prisoner sent him packages that contained cookies and novels.	NA	NA	7	238
1	filler	Practice_1	991	yes	prisoner	4	NA	NA	The mother of the prisoner sent him packages that contained cookies and novels.	NA	NA	7	238
1	filler	Practice_1	925	yes	sent	5	NA	NA	The mother of the prisoner sent him packages that contained cookies and novels.	NA	NA	7	238
1	filler	Practice_1	851	yes	him	6	NA	NA	The mother of the prisoner sent him packages that contained cookies and novels.	NA	NA	7	238
1	filler	Practice_1	816	yes	packages	7	NA	NA	The mother of the prisoner sent him packages that contained cookies and novels.	NA	NA	7	238
1	filler	Practice_1	668	yes	that	8	NA	NA	The mother of the prisoner sent him packages that contained cookies and novels.	NA	NA	7	238
1	filler	Practice_1	802	yes	contained	9	NA	NA	The mother of the prisoner sent him packages that contained cookies and novels.	NA	NA	7	238
1	filler	Practice_1	952	yes	cookies	10	NA	NA	The mother of the prisoner sent him packages that contained cookies and novels.	NA	NA	7	238
1	filler	Practice_1	556	yes	and	11	NA	NA	The mother of the prisoner sent him packages that contained cookies and novels.	NA	NA	7	238
1	filler	Practice_1	1671	yes	novels.	12	NA	NA	The mother of the prisoner sent him packages that contained cookies and novels.	NA	NA	7	238
1	filler	Filler_12	477	yes	The	0	NA	NA	The bully punched the kid after all the kids had to leave to go to class.	NA	NA	16	238
1	filler	Filler_12	1256	yes	bully	1	NA	NA	The bully punched the kid after all the kids had to leave to go to class.	NA	NA	16	238
1	filler	Filler_12	790	yes	punched	2	NA	NA	The bully punched the kid after all the kids had to leave to go to class.	NA	NA	16	238
1	filler	Filler_12	690	yes	the	3	NA	NA	The bully punched the kid after all the kids had to leave to go to class.	NA	NA	16	238
1	filler	Filler_12	828	yes	kid	4	NA	NA	The bully punched the kid after all the kids had to leave to go to class.	NA	NA	16	238
1	filler	Filler_12	835	yes	after	5	NA	NA	The bully punched the kid after all the kids had to leave to go to class.	NA	NA	16	238
1	filler	Filler_12	1437	yes	all	6	NA	NA	The bully punched the kid after all the kids had to leave to go to class.	NA	NA	16	238
1	filler	Filler_12	758	yes	the	7	NA	NA	The bully punched the kid after all the kids had to leave to go to class.	NA	NA	16	238
1	filler	Filler_12	789	yes	kids	8	NA	NA	The bully punched the kid after all the kids had to leave to go to class.	NA	NA	16	238
1	filler	Filler_12	778	yes	had	9	NA	NA	The bully punched the kid after all the kids had to leave to go to class.	NA	NA	16	238
1	filler	Filler_12	868	yes	to	10	NA	NA	The bully punched the kid after all the kids had to leave to go to class.	NA	NA	16	238
1	filler	Filler_12	757	yes	leave	11	NA	NA	The bully punched the kid after all the kids had to leave to go to class.	NA	NA	16	238
1	filler	Filler_12	764	yes	to	12	NA	NA	The bully punched the kid after all the kids had to leave to go to class.	NA	NA	16	238
1	filler	Filler_12	731	yes	go	13	NA	NA	The bully punched the kid after all the kids had to leave to go to class.	NA	NA	16	238
1	filler	Filler_12	744	yes	to	14	NA	NA	The bully punched the kid after all the kids had to leave to go to class.	NA	NA	16	238
1	filler	Filler_12	948	yes	class.	15	NA	NA	The bully punched the kid after all the kids had to leave to go to class.	NA	NA	16	238
1	filler	Filler_44	473	yes	The	0	NA	NA	The prisoner who the guard attacked tackled the warden although he had no intention of trying to escape.	NA	NA	41	238
1	filler	Filler_44	983	yes	prisoner	1	NA	NA	The prisoner who the guard attacked tackled the warden although he had no intention of trying to escape.	NA	NA	41	238
1	filler	Filler_44	625	yes	who	2	NA	NA	The prisoner who the guard attacked tackled the warden although he had no intention of trying to escape.	NA	NA	41	238
1	filler	Filler_44	596	yes	the	3	NA	NA	The prisoner who the guard attacked tackled the warden although he had no intention of trying to escape.	NA	NA	41	238
1	filler	Filler_44	780	yes	guard	4	NA	NA	The prisoner who the guard attacked tackled the warden although he had no intention of trying to escape.	NA	NA	41	238
1	filler	Filler_44	759	yes	attacked	5	NA	NA	The prisoner who the guard attacked tackled the warden although he had no intention of trying to escape.	NA	NA	41	238
1	filler	Filler_44	2105	yes	tackled	6	NA	NA	The prisoner who the guard attacked tackled the warden although he had no intention of trying to escape.	NA	NA	41	238
1	filler	Filler_44	595	yes	the	7	NA	NA	The prisoner who the guard attacked tackled the warden although he had no intention of trying to escape.	NA	NA	41	238
1	filler	Filler_44	777	yes	warden	8	NA	NA	The prisoner who the guard attacked tackled the warden although he had no intention of trying to escape.	NA	NA	41	238
1	filler	Filler_44	849	yes	although	9	NA	NA	The prisoner who the guard attacked tackled the warden although he had no intention of trying to escape.	NA	NA	41	238
1	filler	Filler_44	750	yes	he	10	NA	NA	The prisoner who the guard attacked tackled the warden although he had no intention of trying to escape.	NA	NA	41	238
1	filler	Filler_44	783	yes	had	11	NA	NA	The prisoner who the guard attacked tackled the warden although he had no intention of trying to escape.	NA	NA	41	238
1	filler	Filler_44	681	yes	no	12	NA	NA	The prisoner who the guard attacked tackled the warden although he had no intention of trying to escape.	NA	NA	41	238
1	filler	Filler_44	964	yes	intention	13	NA	NA	The prisoner who the guard attacked tackled the warden although he had no intention of trying to escape.	NA	NA	41	238
1	filler	Filler_44	565	yes	of	14	NA	NA	The prisoner who the guard attacked tackled the warden although he had no intention of trying to escape.	NA	NA	41	238
1	filler	Filler_44	678	yes	trying	15	NA	NA	The prisoner who the guard attacked tackled the warden although he had no intention of trying to escape.	NA	NA	41	238
1	filler	Filler_44	976	yes	to	16	NA	NA	The prisoner who the guard attacked tackled the warden although he had no intention of trying to escape.	NA	NA	41	238
1	filler	Filler_44	765	yes	escape.	17	NA	NA	The prisoner who the guard attacked tackled the warden although he had no intention of trying to escape.	NA	NA	41	238
1	filler	Filler_23	543	yes	The	0	NA	NA	The hippies who the police at the concert arrested complained to the officials while the last act was going on stage.	NA	NA	42	238
1	filler	Filler_23	4734	yes	hippies	1	NA	NA	The hippies who the police at the concert arrested complained to the officials while the last act was going on stage.	NA	NA	42	238
1	filler	Filler_23	580	yes	who	2	NA	NA	The hippies who the police at the concert arrested complained to the officials while the last act was going on stage.	NA	NA	42	238
1	filler	Filler_23	682	yes	the	3	NA	NA	The hippies who the police at the concert arrested complained to the officials while the last act was going on stage.	NA	NA	42	238
1	filler	Filler_23	759	yes	police	4	NA	NA	The hippies who the police at the concert arrested complained to the officials while the last act was going on stage.	NA	NA	42	238
1	filler	Filler_23	826	yes	at	5	NA	NA	The hippies who the police at the concert arrested complained to the officials while the last act was going on stage.	NA	NA	42	238
1	filler	Filler_23	652	yes	the	6	NA	NA	The hippies who the police at the concert arrested complained to the officials while the last act was going on stage.	NA	NA	42	238
1	filler	Filler_23	807	yes	concert	7	NA	NA	The hippies who the police at the concert arrested complained to the officials while the last act was going on stage.	NA	NA	42	238
1	filler	Filler_23	702	yes	arrested	8	NA	NA	The hippies who the police at the concert arrested complained to the officials while the last act was going on stage.	NA	NA	42	238
1	filler	Filler_23	1014	yes	complained	9	NA	NA	The hippies who the police at the concert arrested complained to the officials while the last act was going on stage.	NA	NA	42	238
1	filler	Filler_23	657	yes	to	10	NA	NA	The hippies who the police at the concert arrested complained to the officials while the last act was going on stage.	NA	NA	42	238
1	filler	Filler_23	575	yes	the	11	NA	NA	The hippies who the police at the concert arrested complained to the officials while the last act was going on stage.	NA	NA	42	238
1	filler	Filler_23	1067	yes	officials	12	NA	NA	The hippies who the police at the concert arrested complained to the officials while the last act was going on stage.	NA	NA	42	238
1	filler	Filler_23	774	yes	while	13	NA	NA	The hippies who the police at the concert arrested complained to the officials while the last act was going on stage.	NA	NA	42	238
1	filler	Filler_23	638	yes	the	14	NA	NA	The hippies who the police at the concert arrested complained to the officials while the last act was going on stage.	NA	NA	42	238
1	filler	Filler_23	1068	yes	last	15	NA	NA	The hippies who the police at the concert arrested complained to the officials while the last act was going on stage.	NA	NA	42	238
1	filler	Filler_23	1747	yes	act	16	NA	NA	The hippies who the police at the concert arrested complained to the officials while the last act was going on stage.	NA	NA	42	238
1	filler	Filler_23	695	yes	was	17	NA	NA	The hippies who the police at the concert arrested complained to the officials while the last act was going on stage.	NA	NA	42	238
1	filler	Filler_23	1109	yes	going	18	NA	NA	The hippies who the police at the concert arrested complained to the officials while the last act was going on stage.	NA	NA	42	238
1	filler	Filler_23	971	yes	on	19	NA	NA	The hippies who the police at the concert arrested complained to the officials while the last act was going on stage.	NA	NA	42	238
1	filler	Filler_23	827	yes	stage.	20	NA	NA	The hippies who the police at the concert arrested complained to the officials while the last act was going on stage.	NA	NA	42	238
1	filler	Filler_20	388	yes	The	0	NA	NA	The private tutor explained the assignment carefully.	NA	NA	47	238
1	filler	Filler_20	1050	yes	private	1	NA	NA	The private tutor explained the assignment carefully.	NA	NA	47	238
1	filler	Filler_20	852	yes	tutor	2	NA	NA	The private tutor explained the assignment carefully.	NA	NA	47	238
1	filler	Filler_20	1458	yes	explained	3	NA	NA	The private tutor explained the assignment carefully.	NA	NA	47	238
1	filler	Filler_20	632	yes	the	4	NA	NA	The private tutor explained the assignment carefully.	NA	NA	47	238
1	filler	Filler_20	862	yes	assignment	5	NA	NA	The private tutor explained the assignment carefully.	NA	NA	47	238
1	filler	Filler_20	871	yes	carefully.	6	NA	NA	The private tutor explained the assignment carefully.	NA	NA	47	238
1	filler	Filler_55	411	yes	The	0	NA	NA	The cook who the servant in the kitchen hired offended the butler and then left the mansion early to see a movie at the local theater.	NA	NA	49	238
1	filler	Filler_55	725	yes	cook	1	NA	NA	The cook who the servant in the kitchen hired offended the butler and then left the mansion early to see a movie at the local theater.	NA	NA	49	238
1	filler	Filler_55	592	yes	who	2	NA	NA	The cook who the servant in the kitchen hired offended the butler and then left the mansion early to see a movie at the local theater.	NA	NA	49	238
1	filler	Filler_55	650	yes	the	3	NA	NA	The cook who the servant in the kitchen hired offended the butler and then left the mansion early to see a movie at the local theater.	NA	NA	49	238
1	filler	Filler_55	806	yes	servant	4	NA	NA	The cook who the servant in the kitchen hired offended the butler and then left the mansion early to see a movie at the local theater.	NA	NA	49	238
1	filler	Filler_55	841	yes	in	5	NA	NA	The cook who the servant in the kitchen hired offended the butler and then left the mansion early to see a movie at the local theater.	NA	NA	49	238
1	filler	Filler_55	812	yes	the	6	NA	NA	The cook who the servant in the kitchen hired offended the butler and then left the mansion early to see a movie at the local theater.	NA	NA	49	238
1	filler	Filler_55	576	yes	kitchen	7	NA	NA	The cook who the servant in the kitchen hired offended the butler and then left the mansion early to see a movie at the local theater.	NA	NA	49	238
1	filler	Filler_55	676	yes	hired	8	NA	NA	The cook who the servant in the kitchen hired offended the butler and then left the mansion early to see a movie at the local theater.	NA	NA	49	238
1	filler	Filler_55	1372	yes	offended	9	NA	NA	The cook who the servant in the kitchen hired offended the butler and then left the mansion early to see a movie at the local theater.	NA	NA	49	238
1	filler	Filler_55	608	yes	the	10	NA	NA	The cook who the servant in the kitchen hired offended the butler and then left the mansion early to see a movie at the local theater.	NA	NA	49	238
1	filler	Filler_55	787	yes	butler	11	NA	NA	The cook who the servant in the kitchen hired offended the butler and then left the mansion early to see a movie at the local theater.	NA	NA	49	238
1	filler	Filler_55	546	yes	and	12	NA	NA	The cook who the servant in the kitchen hired offended the butler and then left the mansion early to see a movie at the local theater.	NA	NA	49	238
1	filler	Filler_55	598	yes	then	13	NA	NA	The cook who the servant in the kitchen hired offended the butler and then left the mansion early to see a movie at the local theater.	NA	NA	49	238
1	filler	Filler_55	1206	yes	left	14	NA	NA	The cook who the servant in the kitchen hired offended the butler and then left the mansion early to see a movie at the local theater.	NA	NA	49	238
1	filler	Filler_55	768	yes	the	15	NA	NA	The cook who the servant in the kitchen hired offended the butler and then left the mansion early to see a movie at the local theater.	NA	NA	49	238
1	filler	Filler_55	785	yes	mansion	16	NA	NA	The cook who the servant in the kitchen hired offended the butler and then left the mansion early to see a movie at the local theater.	NA	NA	49	238
1	filler	Filler_55	1025	yes	early	17	NA	NA	The cook who the servant in the kitchen hired offended the butler and then left the mansion early to see a movie at the local theater.	NA	NA	49	238
1	filler	Filler_55	660	yes	to	18	NA	NA	The cook who the servant in the kitchen hired offended the butler and then left the mansion early to see a movie at the local theater.	NA	NA	49	238
1	filler	Filler_55	747	yes	see	19	NA	NA	The cook who the servant in the kitchen hired offended the butler and then left the mansion early to see a movie at the local theater.	NA	NA	49	238
1	filler	Filler_55	600	yes	a	20	NA	NA	The cook who the servant in the kitchen hired offended the butler and then left the mansion early to see a movie at the local theater.	NA	NA	49	238
1	filler	Filler_55	819	yes	movie	21	NA	NA	The cook who the servant in the kitchen hired offended the butler and then left the mansion early to see a movie at the local theater.	NA	NA	49	238
1	filler	Filler_55	1044	yes	at	22	NA	NA	The cook who the servant in the kitchen hired offended the butler and then left the mansion early to see a movie at the local theater.	NA	NA	49	238
1	filler	Filler_55	581	yes	the	23	NA	NA	The cook who the servant in the kitchen hired offended the butler and then left the mansion early to see a movie at the local theater.	NA	NA	49	238
1	filler	Filler_55	993	yes	local	24	NA	NA	The cook who the servant in the kitchen hired offended the butler and then left the mansion early to see a movie at the local theater.	NA	NA	49	238
1	filler	Filler_55	762	yes	theater.	25	NA	NA	The cook who the servant in the kitchen hired offended the butler and then left the mansion early to see a movie at the local theater.	NA	NA	49	238
2	condition_2	Critical_8	637	yes	The	0	REGION_D0	REGION_D0	The truth that the politician was refuted did not bother the farmer.	truth	did_not_bother_the_farmer.	16	238
2	condition_2	Critical_8	803	yes	truth	1	REGION_N0	REGION_N0	The truth that the politician was refuted did not bother the farmer.	truth	did_not_bother_the_farmer.	16	238
2	condition_2	Critical_8	772	yes	that	2	REGION_0_0	REGION_0_0	The truth that the politician was refuted did not bother the farmer.	truth	did_not_bother_the_farmer.	16	238
2	condition_2	Critical_8	586	yes	the	3	REGION_0_1	REGION_0_1	The truth that the politician was refuted did not bother the farmer.	truth	did_not_bother_the_farmer.	16	238
2	condition_2	Critical_8	1043	yes	politician	4	REGION_0_2	REGION_0_2	The truth that the politician was refuted did not bother the farmer.	truth	did_not_bother_the_farmer.	16	238
2	condition_2	Critical_8	772	yes	was	5	REGION_2_0	REGION_2_0	The truth that the politician was refuted did not bother the farmer.	truth	did_not_bother_the_farmer.	16	238
2	condition_2	Critical_8	1913	no	refuted	6	REGION_2_1	REGION_2_1	The truth that the politician was refuted did not bother the farmer.	truth	did_not_bother_the_farmer.	16	238
2	condition_2	Critical_8	845	yes	did	7	REGION_3_0	REGION_3_0	The truth that the politician was refuted did not bother the farmer.	truth	did_not_bother_the_farmer.	16	238
2	condition_2	Critical_8	771	no	not	8	REGION_3_1	REGION_3_1	The truth that the politician was refuted did not bother the farmer.	truth	did_not_bother_the_farmer.	16	238
2	condition_2	Critical_8	1083	yes	bother	9	REGION_3_2	REGION_3_2	The truth that the politician was refuted did not bother the farmer.	truth	did_not_bother_the_farmer.	16	238
2	condition_2	Critical_8	749	yes	the	10	REGION_3_3	REGION_3_3	The truth that the politician was refuted did not bother the farmer.	truth	did_not_bother_the_farmer.	16	238
2	condition_2	Critical_8	2018	yes	farmer.	11	REGION_3_4	REGION_3_4	The truth that the politician was refuted did not bother the farmer.	truth	did_not_bother_the_farmer.	16	238
2	filler	Filler_55	493	yes	The	0	NA	NA	The cook who the servant in the kitchen hired offended the butler and then left the mansion early to see a movie at the local theater.	NA	NA	22	238
2	filler	Filler_55	1216	yes	cook	1	NA	NA	The cook who the servant in the kitchen hired offended the butler and then left the mansion early to see a movie at the local theater.	NA	NA	22	238
2	filler	Filler_55	783	yes	who	2	NA	NA	The cook who the servant in the kitchen hired offended the butler and then left the mansion early to see a movie at the local theater.	NA	NA	22	238
2	filler	Filler_55	1022	yes	the	3	NA	NA	The cook who the servant in the kitchen hired offended the butler and then left the mansion early to see a movie at the local theater.	NA	NA	22	238
2	filler	Filler_55	1068	yes	servant	4	NA	NA	The cook who the servant in the kitchen hired offended the butler and then left the mansion early to see a movie at the local theater.	NA	NA	22	238
2	filler	Filler_55	1446	yes	in	5	NA	NA	The cook who the servant in the kitchen hired offended the butler and then left the mansion early to see a movie at the local theater.	NA	NA	22	238
2	filler	Filler_55	1107	yes	the	6	NA	NA	The cook who the servant in the kitchen hired offended the butler and then left the mansion early to see a movie at the local theater.	NA	NA	22	238
2	filler	Filler_55	704	yes	kitchen	7	NA	NA	The cook who the servant in the kitchen hired offended the butler and then left the mansion early to see a movie at the local theater.	NA	NA	22	238
2	filler	Filler_55	1570	yes	hired	8	NA	NA	The cook who the servant in the kitchen hired offended the butler and then left the mansion early to see a movie at the local theater.	NA	NA	22	238
2	filler	Filler_55	841	yes	offended	9	NA	NA	The cook who the servant in the kitchen hired offended the butler and then left the mansion early to see a movie at the local theater.	NA	NA	22	238
2	filler	Filler_55	684	yes	the	10	NA	NA	The cook who the servant in the kitchen hired offended the butler and then left the mansion early to see a movie at the local theater.	NA	NA	22	238
2	filler	Filler_55	1065	yes	butler	11	NA	NA	The cook who the servant in the kitchen hired offended the butler and then left the mansion early to see a movie at the local theater.	NA	NA	22	238
2	filler	Filler_55	651	yes	and	12	NA	NA	The cook who the servant in the kitchen hired offended the butler and then left the mansion early to see a movie at the local theater.	NA	NA	22	238
2	filler	Filler_55	1121	yes	then	13	NA	NA	The cook who the servant in the kitchen hired offended the butler and then left the mansion early to see a movie at the local theater.	NA	NA	22	238
2	filler	Filler_55	1967	yes	left	14	NA	NA	The cook who the servant in the kitchen hired offended the butler and then left the mansion early to see a movie at the local theater.	NA	NA	22	238
2	filler	Filler_55	918	yes	the	15	NA	NA	The cook who the servant in the kitchen hired offended the butler and then left the mansion early to see a movie at the local theater.	NA	NA	22	238
2	filler	Filler_55	903	yes	mansion	16	NA	NA	The cook who the servant in the kitchen hired offended the butler and then left the mansion early to see a movie at the local theater.	NA	NA	22	238
2	filler	Filler_55	1201	yes	early	17	NA	NA	The cook who the servant in the kitchen hired offended the butler and then left the mansion early to see a movie at the local theater.	NA	NA	22	238
2	filler	Filler_55	577	yes	to	18	NA	NA	The cook who the servant in the kitchen hired offended the butler and then left the mansion early to see a movie at the local theater.	NA	NA	22	238
2	filler	Filler_55	758	yes	see	19	NA	NA	The cook who the servant in the kitchen hired offended the butler and then left the mansion early to see a movie at the local theater.	NA	NA	22	238
2	filler	Filler_55	804	yes	a	20	NA	NA	The cook who the servant in the kitchen hired offended the butler and then left the mansion early to see a movie at the local theater.	NA	NA	22	238
2	filler	Filler_55	920	yes	movie	21	NA	NA	The cook who the servant in the kitchen hired offended the butler and then left the mansion early to see a movie at the local theater.	NA	NA	22	238
2	filler	Filler_55	617	yes	at	22	NA	NA	The cook who the servant in the kitchen hired offended the butler and then left the mansion early to see a movie at the local theater.	NA	NA	22	238
2	filler	Filler_55	568	yes	the	23	NA	NA	The cook who the servant in the kitchen hired offended the butler and then left the mansion early to see a movie at the local theater.	NA	NA	22	238
2	filler	Filler_55	797	yes	local	24	NA	NA	The cook who the servant in the kitchen hired offended the butler and then left the mansion early to see a movie at the local theater.	NA	NA	22	238
2	filler	Filler_55	836	yes	theater.	25	NA	NA	The cook who the servant in the kitchen hired offended the butler and then left the mansion early to see a movie at the local theater.	NA	NA	22	238
2	filler	Filler_8	499	yes	The	0	NA	NA	The speaker who the historian offended kicked a chair after the talk was over and everyone had left the room.	NA	NA	25	238
2	filler	Filler_8	1046	yes	speaker	1	NA	NA	The speaker who the historian offended kicked a chair after the talk was over and everyone had left the room.	NA	NA	25	238
2	filler	Filler_8	1305	yes	who	2	NA	NA	The speaker who the historian offended kicked a chair after the talk was over and everyone had left the room.	NA	NA	25	238
2	filler	Filler_8	627	no	the	3	NA	NA	The speaker who the historian offended kicked a chair after the talk was over and everyone had left the room.	NA	NA	25	238
2	filler	Filler_8	996	yes	historian	4	NA	NA	The speaker who the historian offended kicked a chair after the talk was over and everyone had left the room.	NA	NA	25	238
2	filler	Filler_8	1595	yes	offended	5	NA	NA	The speaker who the historian offended kicked a chair after the talk was over and everyone had left the room.	NA	NA	25	238
2	filler	Filler_8	1142	yes	kicked	6	NA	NA	The speaker who the historian offended kicked a chair after the talk was over and everyone had left the room.	NA	NA	25	238
2	filler	Filler_8	681	yes	a	7	NA	NA	The speaker who the historian offended kicked a chair after the talk was over and everyone had left the room.	NA	NA	25	238
2	filler	Filler_8	1167	yes	chair	8	NA	NA	The speaker who the historian offended kicked a chair after the talk was over and everyone had left the room.	NA	NA	25	238
2	filler	Filler_8	795	yes	after	9	NA	NA	The speaker who the historian offended kicked a chair after the talk was over and everyone had left the room.	NA	NA	25	238
2	filler	Filler_8	970	yes	the	10	NA	NA	The speaker who the historian offended kicked a chair after the talk was over and everyone had left the room.	NA	NA	25	238
2	filler	Filler_8	1414	yes	talk	11	NA	NA	The speaker who the historian offended kicked a chair after the talk was over and everyone had left the room.	NA	NA	25	238
2	filler	Filler_8	557	yes	was	12	NA	NA	The speaker who the historian offended kicked a chair after the talk was over and everyone had left the room.	NA	NA	25	238
2	filler	Filler_8	621	yes	over	13	NA	NA	The speaker who the historian offended kicked a chair after the talk was over and everyone had left the room.	NA	NA	25	238
2	filler	Filler_8	759	yes	and	14	NA	NA	The speaker who the historian offended kicked a chair after the talk was over and everyone had left the room.	NA	NA	25	238
2	filler	Filler_8	746	yes	everyone	15	NA	NA	The speaker who the historian offended kicked a chair after the talk was over and everyone had left the room.	NA	NA	25	238
2	filler	Filler_8	740	yes	had	16	NA	NA	The speaker who the historian offended kicked a chair after the talk was over and everyone had left the room.	NA	NA	25	238
